t_sec,pose_x,pose_y,pose_z,pose_roll,pose_pitch,pose_yaw,status_battery_voltage,raw_battery_voltage,filt_battery_voltage,cmd_x,cmd_y,cmd_z,cmd_yaw,est_vx,est_vy,est_vz,est_ax,est_ay,est_az,gyro_x,gyro_y,gyro_z,angAcc_x,angAcc_y,angAcc_z,velDes_vx,velDes_vy,velDes_vz,attDes_roll,attDes_pitch,attDes_yaw,motor_f1,motor_f2,motor_f3,motor_f4,motor_f1_scaled,motor_f2_scaled,motor_f3_scaled,motor_f4_scaled,bodyInFx,bodyInFy,bodyInFz,droneWorldFx,droneWorldFy,droneWorldFz,droneWorldFx_scaled,droneWorldFy_scaled,droneWorldFz_scaled,zero_bias_count,rateDes_roll,rateDes_pitch,rateDes_yaw,age_pose,age_status,age_cf_voltage,age_cmd_position,age_stateEstimate_velocity,age_stateEstimate_acc,age_gyro_feedback,age_vel_des,age_att_des,age_rate_des,age_cf_motor_force,age_cf_motor_force_scaled,age_cf_body_input_force,age_cf_world_force,age_cf_F_input_scaled,age_cf_zero_bias_dbg,validity_bitmask
1777394128.1136226654,0.0305390377,0.0301336683,0.1013582870,0.5667176324,1.3761276246,0.0048732861,nan,nan,nan,nan,nan,nan,nan,nan,nan,nan,nan,nan,nan,nan,nan,nan,nan,nan,nan,nan,nan,nan,nan,nan,nan,nan,nan,nan,nan,nan,nan,nan,nan,nan,nan,nan,nan,nan,nan,nan,nan,nan,nan,nan,nan,nan,0.0000233650,inf,inf,inf,inf,inf,inf,inf,inf,inf,inf,inf,inf,inf,inf,inf,5
1777394128.1236715317,0.0305390377,0.0301336683,0.1013582870,0.5667176324,1.3761276246,0.0048732861,nan,nan,nan,nan,nan,nan,nan,nan,nan,nan,nan,nan,nan,nan,nan,nan,nan,nan,nan,0.0000000000,0.0000000000,0.0000000000,0.0000000000,0.0000000000,-0.0032535917,nan,nan,nan,nan,nan,nan,nan,nan,nan,nan,nan,nan,nan,nan,0.0000000000,-0.0000000000,0.0000000000,nan,nan,nan,nan,0.0100722313,inf,inf,inf,inf,inf,inf,0.0000126362,0.0000073910,inf,inf,inf,inf,inf,0.0000050068,inf,67079
1777394128.1335961819,0.0305390377,0.0301336683,0.1013582870,0.5667176324,1.3761276246,0.0048732861,nan,nan,nan,nan,nan,nan,nan,nan,nan,nan,nan,nan,nan,nan,nan,nan,nan,nan,nan,0.0000000000,0.0000000000,0.0000000000,0.0000000000,0.0000000000,-0.0032535917,0.0000000000,0.0000000000,0.0000000000,0.0000000000,nan,nan,nan,nan,0.0000000000,0.0000000000,0.0000000000,nan,nan,nan,0.0000000000,-0.0000000000,0.0000000000,nan,nan,nan,nan,0.0199968815,inf,inf,inf,inf,inf,inf,0.0099372864,0.0099320412,inf,0.0000076294,inf,0.0000045300,inf,0.0099296570,inf,87559
1777394128.1436312199,0.0305390377,0.0301336683,0.1013582870,0.5667176324,1.3761276246,0.0048732861,nan,3.8269796371,3.8271756172,nan,nan,nan,nan,nan,nan,nan,nan,nan,nan,nan,nan,nan,nan,nan,nan,0.0000000000,0.0000000000,0.0000000000,0.0000000000,0.0000000000,-0.0032535917,0.0000000000,0.0000000000,0.0000000000,0.0000000000,0.0000000000,0.0000000000,0.0000000000,0.0000000000,0.0000000000,0.0000000000,0.0000000000,nan,nan,nan,0.0000000000,-0.0000000000,0.0000000000,nan,nan,nan,nan,0.0300319195,inf,0.0000081062,inf,inf,inf,inf,0.0199723244,0.0199670792,inf,0.0100426674,0.0000045300,0.0100395679,inf,0.0199646950,inf,95767
1777394128.1536452770,0.0305390377,0.0301336683,0.1013582870,0.5667176324,1.3761276246,0.0048732861,nan,3.8269796371,3.8271756172,nan,nan,nan,nan,nan,nan,nan,nan,nan,nan,-0.0040590959,-0.2921981514,-0.1020171568,nan,nan,nan,0.0000000000,0.0000000000,0.0000000000,0.0000000000,0.0000000000,-0.0032535917,0.0000000000,0.0000000000,0.0000000000,0.0000000000,0.0000000000,0.0000000000,0.0000000000,0.0000000000,0.0000000000,0.0000000000,0.0000000000,0.0000000000,-0.0000000000,0.0000000000,0.0000000000,-0.0000000000,0.0000000000,0.0000000000,nan,nan,nan,0.0400459766,inf,0.0100221634,inf,inf,inf,0.0000114441,0.0299863815,0.0299811363,inf,0.0200567245,0.0100185871,0.0200536251,0.0000073910,0.0299787521,0.0000042915,259863
1777394128.1636505127,0.0302745085,0.0302078482,0.1015101150,0.8583350986,1.4334180581,-0.0059025467,nan,3.8269796371,3.8271756172,nan,nan,nan,nan,nan,nan,nan,0.6395349503,-0.7605426908,-0.8760047555,-0.0040590959,-0.2921981514,-0.1020171568,nan,nan,nan,0.0000000000,0.0000000000,0.0000000000,0.0000000000,0.0000000000,-0.0032535917,0.0000000000,0.0000000000,0.0000000000,0.0000000000,0.0000000000,0.0000000000,0.0000000000,0.0000000000,0.0000000000,0.0000000000,0.0000000000,0.0000000000,-0.0000000000,0.0000000000,0.0000000000,-0.0000000000,0.0000000000,0.0000000000,-322.2679138184,624.7940063477,0.2958938479,0.0000166893,inf,0.0200273991,inf,inf,0.0000078678,0.0100166798,0.0399916172,0.0399863720,0.0000045300,0.0300619602,0.0200238228,0.0300588608,0.0100126266,0.0399839878,0.0100095272,262039
1777394128.1736264229,0.0302745085,0.0302078482,0.1015101150,0.8583350986,1.4334180581,-0.0059025467,nan,3.8269796371,3.8271756172,nan,nan,nan,nan,nan,nan,nan,0.6395349503,-0.7605426908,-0.8760047555,-0.0040590959,-0.2921981514,-0.1020171568,nan,nan,nan,0.0000000000,0.0000000000,0.0000000000,0.0000000000,0.0000000000,-0.0032535917,0.0000000000,0.0000000000,0.0000000000,0.0000000000,0.0000000000,0.0000000000,0.0000000000,0.0000000000,0.0000000000,0.0000000000,0.0000000000,0.0000000000,-0.0000000000,0.0000000000,0.0000000000,-0.0000000000,0.0000000000,0.0000000000,-322.2679138184,624.7940063477,0.2958938479,0.0099925995,inf,0.0300033092,inf,inf,0.0099837780,0.0199925900,0.0499675274,0.0499622822,0.0099804401,0.0400378704,0.0299997330,0.0400347710,0.0199885368,0.0000052452,0.0199854374,262039
1777394128.1836519241,0.0302745085,0.0302078482,0.1015101150,0.8583350986,1.4334180581,-0.0059025467,nan,3.8269796371,3.8271756172,nan,nan,nan,nan,0.0021604544,-0.0019217574,0.0070248009,0.6395349503,-0.7605426908,-0.8760047555,-0.0040590959,-0.2921981514,-0.1020171568,nan,nan,nan,0.0000000000,0.0000000000,0.0000000000,0.0000000000,0.0000000000,-0.0032535917,0.0000000000,0.0000000000,0.0000000000,0.0000000000,0.0000000000,0.0000000000,0.0000000000,0.0000000000,0.0000000000,0.0000000000,0.0000000000,0.0000000000,-0.0000000000,0.0000000000,0.0000000000,-0.0000000000,0.0000000000,0.0000000000,-322.2679138184,624.7940063477,0.2958938479,0.0200181007,inf,0.0400288105,inf,0.0000123978,0.0200092793,0.0300180912,0.0599930286,0.0599877834,0.0200059414,0.0000078678,0.0400252342,0.0000050068,0.0300140381,0.0100307465,0.0300109386,262103
1777394128.1936395168,0.0302745085,0.0302078482,0.1015101150,0.8583350986,1.4334180581,-0.0059025467,nan,3.8269796371,3.8271632195,nan,nan,nan,nan,0.0021604544,-0.0019217574,0.0070248009,0.6395349503,-0.7605426908,-0.8760047555,-0.0040590959,-0.2921981514,-0.1020171568,nan,nan,nan,0.0000000000,0.0000000000,0.0000000000,0.0000000000,0.0000000000,-0.0032535917,0.0000000000,0.0000000000,0.0000000000,0.0000000000,0.0000000000,0.0000000000,0.0000000000,0.0000000000,0.0000000000,0.0000000000,0.0000000000,0.0000000000,-0.0000000000,0.0000000000,0.0000000000,-0.0000000000,0.0000000000,0.0000000000,-322.2679138184,624.7940063477,0.2958938479,0.0300056934,inf,0.0000083447,inf,0.0099999905,0.0299968719,0.0400056839,0.0699806213,0.0699753761,0.0299935341,0.0099954605,0.0000045300,0.0099925995,0.0400016308,0.0200183392,0.0399985313,262103
1777394128.2036414146,0.0302745085,0.0302078482,0.1015101150,0.8583350986,1.4334180581,-0.0059025467,nan,3.8269796371,3.8271632195,nan,nan,nan,nan,0.0021604544,-0.0019217574,0.0070248009,0.6395349503,-0.7605426908,-0.8760047555,-0.0040590959,-0.2921981514,-0.1020171568,nan,nan,nan,0.0000000000,0.0000000000,0.0000000000,0.0000000000,0.0000000000,-0.0032535917,0.0000000000,0.0000000000,0.0000000000,0.0000000000,0.0000000000,0.0000000000,0.0000000000,0.0000000000,0.0000000000,0.0000000000,0.0000000000,0.0000000000,-0.0000000000,0.0000000000,0.0000000000,-0.0000000000,0.0000000000,0.0000000000,-322.2679138184,624.7940063477,0.2958938479,0.0400075912,inf,0.0100102425,inf,0.0200018883,0.0399987698,0.0500075817,0.0799825191,0.0799772739,0.0399954319,0.0199973583,0.0100064278,0.0199944973,0.0000078678,0.0300202370,0.0500004292,262103
1777394128.2136099339,0.0299391076,0.0302938055,0.1016812846,1.4469038186,1.4670715096,-0.0035852545,nan,3.8269796371,3.8271632195,nan,nan,nan,nan,0.0021604544,-0.0019217574,0.0070248009,0.6395349503,-0.7605426908,-0.8760047555,-0.0040590959,-0.2921981514,-0.1020171568,nan,nan,nan,0.0000000000,0.0000000000,0.0000000000,0.0000000000,0.0000000000,-0.0032535917,0.0000000000,0.0000000000,0.0000000000,0.0000000000,0.0000000000,0.0000000000,0.0000000000,0.0000000000,0.0000000000,0.0000000000,0.0000000000,0.0000000000,-0.0000000000,0.0000000000,0.0000000000,-0.0000000000,0.0000000000,0.0000000000,-322.2679138184,624.7940063477,0.2958938479,0.0000181198,inf,0.0199787617,inf,0.0299704075,0.0499672890,0.0599761009,0.0000066757,0.0899457932,0.0499639511,0.0299658775,0.0199749470,0.0299630165,0.0099763870,0.0399887562,0.0599689484,262103
1777394128.2236015797,0.0299391076,0.0302938055,0.1016812846,1.4469038186,1.4670715096,-0.0035852545,nan,3.8269796371,3.8271632195,nan,nan,nan,nan,0.0021604544,-0.0019217574,0.0070248009,0.6395349503,-0.7605426908,-0.8760047555,-0.0040590959,-0.2921981514,-0.1020171568,nan,nan,nan,0.0000000000,0.0000000000,0.0000000000,0.0000000000,0.0000000000,-0.0041550798,0.0000000000,0.0000000000,0.0000000000,0.0000000000,0.0000000000,0.0000000000,0.0000000000,0.0000000000,0.0000000000,0.0000000000,0.0000000000,0.0000000000,-0.0000000000,0.0000000000,-0.0000000000,-0.0000000000,-0.0000000000,0.0000000000,-322.2679138184,624.7940063477,0.2958938479,0.0100097656,inf,0.0299704075,inf,0.0399620533,0.0599589348,0.0699677467,0.0099983215,0.0000138283,0.0599555969,0.0399575233,0.0299665928,0.0399546623,0.0199680328,0.0000081062,0.0699605942,262103
1777394128.2335674763,0.0299391076,0.0302938055,0.1016812846,1.4469038186,1.4670715096,-0.0035852545,nan,3.8269796371,3.8271632195,nan,nan,nan,nan,0.0021604544,-0.0019217574,0.0070248009,0.6395349503,-0.7605426908,-0.8760047555,-0.0040590959,-0.2921981514,-0.1020171568,nan,nan,nan,0.0000000000,0.0000000000,0.0000000000,0.0000000000,0.0000000000,-0.0041550798,0.0000000000,0.0000000000,0.0000000000,0.0000000000,0.0000000000,0.0000000000,0.0000000000,0.0000000000,0.0000000000,0.0000000000,0.0000000000,0.0000000000,-0.0000000000,0.0000000000,-0.0000000000,-0.0000000000,-0.0000000000,0.0000000000,-322.2679138184,624.7940063477,0.2958938479,0.0199756622,inf,0.0399363041,inf,0.0499279499,0.0699248314,0.0799336433,0.0199642181,0.0099797249,0.0699214935,0.0499234200,0.0399324894,0.0000042915,0.0299339294,0.0099740028,0.0799264908,262103
1777394128.2435710430,0.0299391076,0.0302938055,0.1016812846,1.4469038186,1.4670715096,-0.0035852545,nan,3.8269796371,3.8271517754,nan,nan,nan,nan,0.0021604544,-0.0019217574,0.0070248009,0.6395349503,-0.7605426908,-0.8760047555,-0.0040590959,-0.2921981514,-0.1020171568,nan,nan,nan,0.0000000000,0.0000000000,0.0000000000,0.0000000000,0.0000000000,-0.0041550798,0.0000000000,0.0000000000,0.0000000000,0.0000000000,0.0000000000,0.0000000000,0.0000000000,0.0000000000,0.0000000000,0.0000000000,0.0000000000,0.0000000000,-0.0000000000,0.0000000000,-0.0000000000,-0.0000000000,-0.0000000000,0.0000000000,-322.2679138184,624.7940063477,0.2958938479,0.0299792290,inf,0.0000128746,inf,0.0599315166,0.0799283981,0.0899372101,0.0299677849,0.0199832916,0.0799250603,0.0000083447,0.0000042915,0.0100078583,0.0399374962,0.0199775696,0.0899300575,262103
1777394128.2535738945,0.0299391076,0.0302938055,0.1016812846,1.4469038186,1.4670715096,-0.0035852545,nan,3.8269796371,3.8271517754,nan,nan,nan,nan,0.0021604544,-0.0019217574,0.0070248009,0.6395349503,-0.7605426908,-0.8760047555,-0.0017296020,0.0436963364,-0.1526434273,0.0233113566,3.3613122115,-0.5066195110,0.0000000000,0.0000000000,0.0000000000,0.0000000000,0.0000000000,-0.0041550798,0.0000000000,0.0000000000,0.0000000000,0.0000000000,0.0000000000,0.0000000000,0.0000000000,0.0000000000,0.0000000000,0.0000000000,0.0000000000,-0.0000000000,-0.0000000000,-0.0000000000,-0.0000000000,-0.0000000000,-0.0000000000,0.0000000000,-322.2679138184,624.7940063477,0.2958938479,0.0399820805,inf,0.0100157261,inf,0.0699343681,0.0899312496,0.0000104904,0.0399706364,0.0299861431,0.0899279118,0.0100111961,0.0100071430,0.0200107098,0.0000054836,0.0299804211,0.0999329090,262103
1777394128.2635855675,0.0309237354,0.0300124660,0.0999349877,2.1162410625,1.4511333033,-0.0009110052,nan,3.8269796371,3.8271517754,nan,nan,nan,nan,0.0021604544,-0.0019217574,0.0070248009,-0.5170679688,-0.8560931683,-1.0280332565,-0.0017296020,0.0436963364,-0.1526434273,0.0233113566,3.3613122115,-0.5066195110,0.0000000000,0.0000000000,0.0000000000,0.0000000000,0.0000000000,-0.0041550798,0.0000000000,0.0000000000,0.0000000000,0.0000000000,0.0000000000,0.0000000000,0.0000000000,0.0000000000,0.0000000000,0.0000000000,0.0000000000,-0.0000000000,-0.0000000000,-0.0000000000,-0.0000000000,-0.0000000000,-0.0000000000,0.0000000000,-789.1525268555,631.2159423828,-0.0881452337,0.0000164509,inf,0.0200273991,inf,0.0799460411,0.0000090599,0.0100221634,0.0499823093,0.0399978161,0.0000054836,0.0200228691,0.0200188160,0.0300223827,0.0100171566,0.0399920940,0.1099445820,262103
1777394128.2735819817,0.0309237354,0.0300124660,0.0999349877,2.1162410625,1.4511333033,-0.0009110052,nan,3.8269796371,3.8271517754,nan,nan,nan,nan,0.0021604544,-0.0019217574,0.0070248009,-0.5170679688,-0.8560931683,-1.0280332565,-0.0017296020,0.0436963364,-0.1526434273,0.0233113566,3.3613122115,-0.5066195110,0.0000000000,0.0000000000,0.0000000000,0.0000000000,0.0000000000,-0.0041550798,0.0000000000,0.0000000000,0.0000000000,0.0000000000,0.0000000000,0.0000000000,0.0000000000,0.0000000000,0.0000000000,0.0000000000,0.0000000000,-0.0000000000,-0.0000000000,-0.0000000000,-0.0000000000,-0.0000000000,-0.0000000000,0.0000000000,-789.1525268555,631.2159423828,-0.0881452337,0.0100128651,inf,0.0300238132,inf,0.0899424553,0.0100054741,0.0200185776,0.0599787235,0.0499942303,0.0100018978,0.0300192833,0.0300152302,0.0400187969,0.0200135708,0.0000054836,0.1199409962,262103
1777394128.2835717201,0.0309237354,0.0300124660,0.0999349877,2.1162410625,1.4511333033,-0.0009110052,nan,3.8269796371,3.8271517754,nan,nan,nan,nan,0.0027182999,0.0025733516,0.0038049174,-0.5170679688,-0.8560931683,-1.0280332565,-0.0017296020,0.0436963364,-0.1526434273,0.0233113566,3.3613122115,-0.5066195110,0.0000000000,0.0000000000,0.0000000000,0.0000000000,0.0000000000,-0.0041550798,0.0000000000,0.0000000000,0.0000000000,0.0000000000,0.0000000000,0.0000000000,0.0000000000,0.0000000000,0.0000000000,0.0000000000,0.0000000000,-0.0000000000,-0.0000000000,-0.0000000000,-0.0000000000,-0.0000000000,-0.0000000000,0.0000000000,-789.1525268555,631.2159423828,-0.0881452337,0.0200026035,inf,0.0400135517,inf,0.0000138283,0.0199952126,0.0300083160,0.0699684620,0.0599839687,0.0199916363,0.0000090599,0.0400049686,0.0000042915,0.0300033092,0.0099952221,0.1299307346,262103
1777394128.2935621738,0.0309237354,0.0300124660,0.0999349877,2.1162410625,1.4511333033,-0.0009110052,nan,3.8269796371,3.8271410465,nan,nan,nan,nan,0.0027182999,0.0025733516,0.0038049174,-0.5170679688,-0.8560931683,-1.0280332565,-0.0017296020,0.0436963364,-0.1526434273,0.0233113566,3.3613122115,-0.5066195110,0.0000000000,0.0000000000,0.0000000000,0.0000000000,0.0000000000,-0.0041550798,0.0000000000,0.0000000000,0.0000000000,0.0000000000,0.0000000000,0.0000000000,0.0000000000,0.0000000000,0.0000000000,0.0000000000,0.0000000000,-0.0000000000,-0.0000000000,-0.0000000000,-0.0000000000,-0.0000000000,-0.0000000000,0.0000000000,-789.1525268555,631.2159423828,-0.0881452337,0.0299930573,inf,0.0000076294,inf,0.0100042820,0.0299856663,0.0399987698,0.0799589157,0.0699744225,0.0299820900,0.0099995136,0.0000033379,0.0099947453,0.0399937630,0.0199856758,0.1399211884,262103
1777394128.3036167622,0.0309237354,0.0300124660,0.0999349877,2.1162410625,1.4511333033,-0.0009110052,nan,3.8269796371,3.8271410465,nan,nan,nan,nan,0.0027182999,0.0025733516,0.0038049174,-0.5170679688,-0.8560931683,-1.0280332565,-0.0017296020,0.0436963364,-0.1526434273,0.0233113566,3.3613122115,-0.5066195110,0.0000000000,0.0000000000,0.0000000000,0.0000000000,0.0000000000,-0.0041550798,0.0000000000,0.0000000000,0.0000000000,0.0000000000,0.0000000000,0.0000000000,0.0000000000,0.0000000000,0.0000000000,0.0000000000,0.0000000000,-0.0000000000,-0.0000000000,-0.0000000000,-0.0000000000,-0.0000000000,-0.0000000000,0.0000000000,-789.1525268555,631.2159423828,-0.0881452337,0.0400476456,inf,0.0100622177,inf,0.0200588703,0.0400402546,0.0500533581,0.0000083447,0.0800290108,0.0400366783,0.0200541019,0.0100579262,0.0200493336,0.0000040531,0.0300402641,0.1499757767,262103
1777394128.3136537075,0.0307449345,0.0300448723,0.0997449756,2.5019556355,1.3963378391,-0.0001848333,nan,3.8269796371,3.8271410465,nan,nan,nan,nan,0.0027182999,0.0025733516,0.0038049174,-0.5170679688,-0.8560931683,-1.0280332565,-0.0017296020,0.0436963364,-0.1526434273,0.0233113566,3.3613122115,-0.5066195110,0.0000000000,0.0000000000,0.0000000000,0.0000000000,0.0000000000,-0.0041550798,0.0000000000,0.0000000000,0.0000000000,0.0000000000,0.0000000000,0.0000000000,0.0000000000,0.0000000000,0.0000000000,0.0000000000,0.0000000000,-0.0000000000,-0.0000000000,-0.0000000000,-0.0000000000,-0.0000000000,-0.0000000000,0.0000000000,-789.1525268555,631.2159423828,-0.0881452337,0.0000112057,inf,0.0200991631,inf,0.0300958157,0.0500771999,0.0600903034,0.0100452900,0.0900659561,0.0500736237,0.0300910473,0.0200948715,0.0300862789,0.0100409985,0.0400772095,0.1600127220,262103
1777394128.3236868382,0.0307449345,0.0300448723,0.0997449756,2.5019556355,1.3963378391,-0.0001848333,nan,3.8269796371,3.8271410465,nan,nan,nan,nan,0.0027182999,0.0025733516,0.0038049174,-0.5170679688,-0.8560931683,-1.0280332565,-0.0017296020,0.0436963364,-0.1526434273,0.0233113566,3.3613122115,-0.5066195110,0.0000000000,0.0000000000,0.0000000000,0.0000000000,0.0000000000,-0.0017472709,0.0000000000,0.0000000000,0.0000000000,0.0000000000,0.0000000000,0.0000000000,0.0000000000,0.0000000000,0.0000000000,0.0000000000,0.0000000000,-0.0000000000,-0.0000000000,-0.0000000000,-0.0000000000,-0.0000000000,-0.0000000000,0.0000000000,-789.1525268555,631.2159423828,-0.0881452337,0.0100443363,inf,0.0301322937,inf,0.0401289463,0.0601103306,0.0701234341,0.0200784206,0.0000226498,0.0601067543,0.0401241779,0.0301280022,0.0401194096,0.0200741291,0.0000109673,0.1700458527,262103
1777394128.3336732388,0.0307449345,0.0300448723,0.0997449756,2.5019556355,1.3963378391,-0.0001848333,nan,3.8269796371,3.8271410465,nan,nan,nan,nan,0.0027182999,0.0025733516,0.0038049174,-0.5170679688,-0.8560931683,-1.0280332565,-0.0017296020,0.0436963364,-0.1526434273,0.0233113566,3.3613122115,-0.5066195110,0.0000000000,0.0000000000,0.0000000000,0.0000000000,0.0000000000,-0.0017472709,0.0000000000,0.0000000000,0.0000000000,0.0000000000,0.0000000000,0.0000000000,0.0000000000,0.0000000000,0.0000000000,0.0000000000,0.0000000000,-0.0000000000,-0.0000000000,-0.0000000000,-0.0000000000,-0.0000000000,-0.0000000000,0.0000000000,-789.1525268555,631.2159423828,-0.0881452337,0.0200307369,inf,0.0401186943,inf,0.0501153469,0.0700967312,0.0801098347,0.0300648212,0.0100090504,0.0700931549,0.0000255108,0.0401144028,0.0000114441,0.0300605297,0.0099973679,0.1800322533,262103
1777394128.3436512947,0.0307449345,0.0300448723,0.0997449756,2.5019556355,1.3963378391,-0.0001848333,nan,3.8269796371,3.8271324635,nan,nan,nan,nan,0.0027182999,0.0025733516,0.0038049174,-0.5170679688,-0.8560931683,-1.0280332565,-0.0017296020,0.0436963364,-0.1526434273,0.0233113566,3.3613122115,-0.5066195110,0.0000000000,0.0000000000,0.0000000000,0.0000000000,0.0000000000,-0.0017472709,0.0000000000,0.0000000000,0.0000000000,0.0000000000,0.0000000000,0.0000000000,0.0000000000,0.0000000000,0.0000000000,0.0000000000,0.0000000000,-0.0000000000,-0.0000000000,-0.0000000000,-0.0000000000,-0.0000000000,-0.0000000000,0.0000000000,-789.1525268555,631.2159423828,-0.0881452337,0.0300087929,inf,0.0000193119,inf,0.0600934029,0.0800747871,0.0900878906,0.0400428772,0.0199871063,0.0800712109,0.0100035667,0.0000100136,0.0099895000,0.0400385857,0.0199754238,0.1900103092,262103
1777394128.3536128998,0.0307449345,0.0300448723,0.0997449756,2.5019556355,1.3963378391,-0.0001848333,nan,3.8269796371,3.8271324635,nan,nan,nan,nan,0.0027182999,0.0025733516,0.0038049174,-0.5170679688,-0.8560931683,-1.0280332565,-0.0438582562,0.0501571670,-0.0671406835,-0.4211544010,0.0645880406,0.8547592489,0.0000000000,0.0000000000,0.0000000000,0.0000000000,0.0000000000,-0.0017472709,0.0000000000,0.0000000000,0.0000000000,0.0000000000,0.0000000000,0.0000000000,0.0000000000,0.0000000000,0.0000000000,0.0000000000,0.0000000000,-0.0000000000,-0.0000000000,-0.0000000000,-0.0000000000,-0.0000000000,-0.0000000000,0.0000000000,-789.1525268555,631.2159423828,-0.0881452337,0.0399703979,inf,0.0099809170,inf,0.0700550079,0.0900363922,0.0000181198,0.0500044823,0.0299487114,0.0900328159,0.0199651718,0.0099716187,0.0199511051,0.0000116825,0.0299370289,0.0000057220,262103
1777394128.3636455536,0.0307658836,0.0300419759,0.0998603255,2.6923406140,1.3341265701,-0.0021225874,nan,3.8269796371,3.8271324635,nan,nan,nan,nan,0.0027182999,0.0025733516,0.0038049174,-0.8814212680,-0.4346413910,-1.1761875153,-0.0438582562,0.0501571670,-0.0671406835,-0.4211544010,0.0645880406,0.8547592489,0.0000000000,0.0000000000,0.0000000000,0.0000000000,0.0000000000,-0.0017472709,0.0000000000,0.0000000000,0.0000000000,0.0000000000,0.0000000000,0.0000000000,0.0000000000,0.0000000000,0.0000000000,0.0000000000,0.0000000000,-0.0000000000,-0.0000000000,-0.0000000000,-0.0000000000,-0.0000000000,-0.0000000000,0.0000000000,-1003.9471435547,580.9605102539,0.1540068686,0.0000302792,inf,0.0200135708,inf,0.0800876617,0.0000152588,0.0100507736,0.0600371361,0.0399813652,0.0000088215,0.0299978256,0.0200042725,0.0299837589,0.0100443363,0.0399696827,0.0100383759,262103
1777394128.3736464977,0.0307658836,0.0300419759,0.0998603255,2.6923406140,1.3341265701,-0.0021225874,nan,3.8269796371,3.8271324635,nan,nan,nan,nan,0.0027182999,0.0025733516,0.0038049174,-0.8814212680,-0.4346413910,-1.1761875153,-0.0438582562,0.0501571670,-0.0671406835,-0.4211544010,0.0645880406,0.8547592489,0.0000000000,0.0000000000,0.0000000000,0.0000000000,0.0000000000,-0.0017472709,0.0000000000,0.0000000000,0.0000000000,0.0000000000,0.0000000000,0.0000000000,0.0000000000,0.0000000000,0.0000000000,0.0000000000,0.0000000000,-0.0000000000,-0.0000000000,-0.0000000000,-0.0000000000,-0.0000000000,-0.0000000000,0.0000000000,-1003.9471435547,580.9605102539,0.1540068686,0.0100312233,inf,0.0300145149,inf,0.0900886059,0.0100162029,0.0200517178,0.0700380802,0.0499823093,0.0100097656,0.0399987698,0.0300052166,0.0399847031,0.0200452805,0.0000121593,0.0200393200,262103
1777394128.3836543560,0.0307658836,0.0300419759,0.0998603255,2.6923406140,1.3341265701,-0.0021225874,nan,3.8269796371,3.8271324635,nan,nan,nan,nan,0.0006535137,0.0000025113,0.0048530307,-0.8814212680,-0.4346413910,-1.1761875153,-0.0438582562,0.0501571670,-0.0671406835,-0.4211544010,0.0645880406,0.8547592489,0.0000000000,0.0000000000,0.0000000000,0.0000000000,0.0000000000,-0.0017472709,0.0000000000,0.0000000000,0.0000000000,0.0000000000,0.0000000000,0.0000000000,0.0000000000,0.0000000000,0.0000000000,0.0000000000,0.0000000000,-0.0000000000,-0.0000000000,-0.0000000000,-0.0000000000,-0.0000000000,-0.0000000000,0.0000000000,-1003.9471435547,580.9605102539,0.1540068686,0.0200390816,inf,0.0400223732,inf,0.0000278950,0.0200240612,0.0300595760,0.0800459385,0.0599901676,0.0200176239,0.0000171661,0.0400130749,0.0000088215,0.0300531387,0.0100200176,0.0300471783,262103
1777394128.3936548233,0.0307658836,0.0300419759,0.0998603255,2.6923406140,1.3341265701,-0.0021225874,nan,3.8269796371,3.8271231651,nan,nan,nan,nan,0.0006535137,0.0000025113,0.0048530307,-0.8814212680,-0.4346413910,-1.1761875153,-0.0438582562,0.0501571670,-0.0671406835,-0.4211544010,0.0645880406,0.8547592489,0.0000000000,0.0000000000,0.0000000000,0.0000000000,0.0000000000,-0.0017472709,0.0000000000,0.0000000000,0.0000000000,0.0000000000,0.0000000000,0.0000000000,0.0000000000,0.0000000000,0.0000000000,0.0000000000,0.0000000000,-0.0000000000,-0.0000000000,-0.0000000000,-0.0000000000,-0.0000000000,-0.0000000000,0.0000000000,-1003.9471435547,580.9605102539,0.1540068686,0.0300395489,inf,0.0000259876,inf,0.0100283623,0.0300245285,0.0400600433,0.0000164509,0.0699906349,0.0300180912,0.0100176334,0.0000097752,0.0100092888,0.0400536060,0.0200204849,0.0400476456,262103
1777394128.4036130905,0.0307658836,0.0300419759,0.0998603255,2.6923406140,1.3341265701,-0.0021225874,nan,3.8269796371,3.8271231651,nan,nan,nan,nan,0.0006535137,0.0000025113,0.0048530307,-0.8814212680,-0.4346413910,-1.1761875153,-0.0438582562,0.0501571670,-0.0671406835,-0.4211544010,0.0645880406,0.8547592489,0.0000000000,0.0000000000,0.0000000000,0.0000000000,0.0000000000,-0.0017472709,0.0000000000,0.0000000000,0.0000000000,0.0000000000,0.0000000000,0.0000000000,0.0000000000,0.0000000000,0.0000000000,0.0000000000,0.0000000000,-0.0000000000,-0.0000000000,-0.0000000000,-0.0000000000,-0.0000000000,-0.0000000000,0.0000000000,-1003.9471435547,580.9605102539,0.1540068686,0.0399978161,inf,0.0099842548,inf,0.0199866295,0.0399827957,0.0500183105,0.0099747181,0.0799489021,0.0399763584,0.0199759007,0.0099680424,0.0199675560,0.0000095367,0.0299787521,0.0500059128,262103
1777394128.4136528969,0.0305298213,0.0300827902,0.0997793302,2.8048424936,1.2646589826,0.0014764934,nan,3.8269796371,3.8271231651,nan,nan,nan,nan,0.0006535137,0.0000025113,0.0048530307,-0.8814212680,-0.4346413910,-1.1761875153,-0.0438582562,0.0501571670,-0.0671406835,-0.4211544010,0.0645880406,0.8547592489,0.0000000000,0.0000000000,0.0000000000,0.0000000000,0.0000000000,-0.0017472709,0.0000000000,0.0000000000,0.0000000000,0.0000000000,0.0000000000,0.0000000000,0.0000000000,0.0000000000,0.0000000000,0.0000000000,0.0000000000,-0.0000000000,-0.0000000000,-0.0000000000,-0.0000000000,-0.0000000000,-0.0000000000,0.0000000000,-1003.9471435547,580.9605102539,0.1540068686,0.0000138283,inf,0.0200240612,inf,0.0300264359,0.0500226021,0.0600581169,0.0200145245,0.0899887085,0.0500161648,0.0300157070,0.0200078487,0.0300073624,0.0100493431,0.0400185585,0.0600457191,262103
1777394128.4236431122,0.0305298213,0.0300827902,0.0997793302,2.8048424936,1.2646589826,0.0014764934,nan,3.8269796371,3.8271231651,nan,nan,nan,nan,0.0006535137,0.0000025113,0.0048530307,-0.8814212680,-0.4346413910,-1.1761875153,-0.0438582562,0.0501571670,-0.0671406835,-0.4211544010,0.0645880406,0.8547592489,0.0000000000,0.0000000000,0.0000000000,0.0000000000,0.0000000000,-0.0052680569,0.0000000000,0.0000000000,0.0000000000,0.0000000000,0.0000000000,0.0000000000,0.0000000000,0.0000000000,0.0000000000,0.0000000000,0.0000000000,-0.0000000000,-0.0000000000,-0.0000000000,-0.0000000000,-0.0000000000,-0.0000000000,0.0000000000,-1003.9471435547,580.9605102539,0.1540068686,0.0100040436,inf,0.0300142765,inf,0.0400166512,0.0600128174,0.0700483322,0.0300047398,0.0000197887,0.0600063801,0.0400059223,0.0299980640,0.0399975777,0.0200395584,0.0000095367,0.0700359344,262103
1777394128.4336621761,0.0305298213,0.0300827902,0.0997793302,2.8048424936,1.2646589826,0.0014764934,nan,3.8269796371,3.8271231651,nan,nan,nan,nan,0.0006535137,0.0000025113,0.0048530307,-0.8814212680,-0.4346413910,-1.1761875153,-0.0438582562,0.0501571670,-0.0671406835,-0.4211544010,0.0645880406,0.8547592489,0.0000000000,0.0000000000,0.0000000000,0.0000000000,0.0000000000,-0.0052680569,0.0000000000,0.0000000000,0.0000000000,0.0000000000,0.0000000000,0.0000000000,0.0000000000,0.0000000000,0.0000000000,0.0000000000,0.0000000000,-0.0000000000,-0.0000000000,-0.0000000000,-0.0000000000,-0.0000000000,-0.0000000000,0.0000000000,-1003.9471435547,580.9605102539,0.1540068686,0.0200231075,inf,0.0400333405,inf,0.0500357151,0.0700318813,0.0800673962,0.0400238037,0.0100388527,0.0700254440,0.0000190735,0.0400171280,0.0000097752,0.0300586224,0.0100286007,0.0800549984,262103
1777394128.4436264038,0.0305298213,0.0300827902,0.0997793302,2.8048424936,1.2646589826,0.0014764934,nan,3.8269796371,3.8271145821,nan,nan,nan,nan,0.0006535137,0.0000025113,0.0048530307,-0.8814212680,-0.4346413910,-1.1761875153,-0.0438582562,0.0501571670,-0.0671406835,-0.4211544010,0.0645880406,0.8547592489,0.0000000000,0.0000000000,0.0000000000,0.0000000000,0.0000000000,-0.0052680569,0.0000000000,0.0000000000,0.0000000000,0.0000000000,0.0000000000,0.0000000000,0.0000000000,0.0000000000,0.0000000000,0.0000000000,0.0000000000,-0.0000000000,-0.0000000000,-0.0000000000,-0.0000000000,-0.0000000000,-0.0000000000,0.0000000000,-1003.9471435547,580.9605102539,0.1540068686,0.0299873352,inf,0.0000190735,inf,0.0599999428,0.0799961090,0.0900316238,0.0499880314,0.0200030804,0.0799896717,0.0099833012,0.0000088215,0.0099740028,0.0400228500,0.0199928284,0.0900192261,262103
1777394128.4538302422,0.0305298213,0.0300827902,0.0997793302,2.8048424936,1.2646589826,0.0014764934,nan,3.8269796371,3.8271145821,nan,nan,nan,nan,0.0006535137,0.0000025113,0.0048530307,-0.8814212680,-0.4346413910,-1.1761875153,-0.0218311325,0.0094647957,0.1608375460,0.2198390337,-0.4061252710,2.2753090386,0.0000000000,0.0000000000,0.0000000000,0.0000000000,0.0000000000,-0.0052680569,0.0000000000,0.0000000000,0.0000000000,0.0000000000,0.0000000000,0.0000000000,0.0000000000,0.0000000000,0.0000000000,0.0000000000,0.0000000000,-0.0000000000,-0.0000000000,-0.0000000000,-0.0000000000,-0.0000000000,-0.0000000000,0.0000000000,-1003.9471435547,580.9605102539,0.1540068686,0.0401911736,inf,0.0102229118,inf,0.0702037811,0.0901999474,0.0000388622,0.0601918697,0.0302069187,0.0901935101,0.0201871395,0.0102126598,0.0201778412,0.0000188351,0.0301966667,0.1002230644,262103
1777394128.4637832642,0.0302361958,0.0301420204,0.0996974483,2.8677153868,1.1989273401,-0.0022302457,nan,3.8269796371,3.8271145821,nan,nan,nan,nan,0.0006535137,0.0000025113,0.0048530307,-0.9100083113,-0.2699396908,-1.3200873137,-0.0218311325,0.0094647957,0.1608375460,0.2198390337,-0.4061252710,2.2753090386,0.0000000000,0.0000000000,0.0000000000,0.0000000000,0.0000000000,-0.0052680569,0.0000000000,0.0000000000,0.0000000000,0.0000000000,0.0000000000,0.0000000000,0.0000000000,0.0000000000,0.0000000000,0.0000000000,0.0000000000,-0.0000000000,-0.0000000000,-0.0000000000,-0.0000000000,-0.0000000000,-0.0000000000,0.0000000000,-1069.7939453125,521.9077758789,-0.1414008737,0.0000610352,inf,0.0201759338,inf,0.0801568031,0.0000300407,0.0099918842,0.0701448917,0.0401599407,0.0000181198,0.0301401615,0.0201656818,0.0301308632,0.0099718571,0.0401496887,0.1101760864,262103
1777394128.4736607075,0.0302361958,0.0301420204,0.0996974483,2.8677153868,1.1989273401,-0.0022302457,nan,3.8269796371,3.8271145821,nan,nan,nan,nan,0.0006535137,0.0000025113,0.0048530307,-0.9100083113,-0.2699396908,-1.3200873137,-0.0218311325,0.0094647957,0.1608375460,0.2198390337,-0.4061252710,2.2753090386,0.0000000000,0.0000000000,0.0000000000,0.0000000000,0.0000000000,-0.0052680569,0.0000000000,0.0000000000,0.0000000000,0.0000000000,0.0000000000,0.0000000000,0.0000000000,0.0000000000,0.0000000000,0.0000000000,0.0000000000,-0.0000000000,-0.0000000000,-0.0000000000,-0.0000000000,-0.0000000000,-0.0000000000,0.0000000000,-1069.7939453125,521.9077758789,-0.1414008737,0.0099384785,inf,0.0300533772,inf,0.0900342464,0.0099074841,0.0198693275,0.0800223351,0.0500373840,0.0098955631,0.0400176048,0.0300431252,0.0400083065,0.0198493004,0.0000164509,0.1200535297,262103
1777394128.4836997986,0.0302361958,0.0301420204,0.0996974483,2.8677153868,1.1989273401,-0.0022302457,nan,3.8269796371,3.8271145821,nan,nan,nan,nan,-0.0007793433,-0.0008962284,0.0068267002,-0.9100083113,-0.2699396908,-1.3200873137,-0.0218311325,0.0094647957,0.1608375460,0.2198390337,-0.4061252710,2.2753090386,0.0000000000,0.0000000000,0.0000000000,0.0000000000,0.0000000000,-0.0052680569,0.0000000000,0.0000000000,0.0000000000,0.0000000000,0.0000000000,0.0000000000,0.0000000000,0.0000000000,0.0000000000,0.0000000000,0.0000000000,-0.0000000000,-0.0000000000,-0.0000000000,-0.0000000000,-0.0000000000,-0.0000000000,0.0000000000,-1069.7939453125,521.9077758789,-0.1414008737,0.0199775696,inf,0.0400924683,inf,0.0000329018,0.0199465752,0.0299084187,0.0000231266,0.0600764751,0.0199346542,0.0000169277,0.0400822163,0.0000112057,0.0298883915,0.0100555420,0.1300926208,262103
1777394128.4937224388,0.0302361958,0.0301420204,0.0996974483,2.8677153868,1.1989273401,-0.0022302457,nan,3.8269796371,3.8271052837,nan,nan,nan,nan,-0.0007793433,-0.0008962284,0.0068267002,-0.9100083113,-0.2699396908,-1.3200873137,-0.0218311325,0.0094647957,0.1608375460,0.2198390337,-0.4061252710,2.2753090386,0.0000000000,0.0000000000,0.0000000000,0.0000000000,0.0000000000,-0.0052680569,0.0000000000,0.0000000000,0.0000000000,0.0000000000,0.0000000000,0.0000000000,0.0000000000,0.0000000000,0.0000000000,0.0000000000,0.0000000000,-0.0000000000,-0.0000000000,-0.0000000000,-0.0000000000,-0.0000000000,-0.0000000000,0.0000000000,-1069.7939453125,521.9077758789,-0.1414008737,0.0300002098,inf,0.0000283718,inf,0.0100555420,0.0299692154,0.0399310589,0.0100457668,0.0700991154,0.0299572945,0.0100395679,0.0000150204,0.0100338459,0.0399110317,0.0200781822,0.1401152611,262103
1777394128.5037641525,0.0302361958,0.0301420204,0.0996974483,2.8677153868,1.1989273401,-0.0022302457,nan,3.8269796371,3.8271052837,nan,nan,nan,nan,-0.0007793433,-0.0008962284,0.0068267002,-0.9100083113,-0.2699396908,-1.3200873137,-0.0218311325,0.0094647957,0.1608375460,0.2198390337,-0.4061252710,2.2753090386,0.0000000000,0.0000000000,0.0000000000,0.0000000000,0.0000000000,-0.0052680569,0.0000000000,0.0000000000,0.0000000000,0.0000000000,0.0000000000,0.0000000000,0.0000000000,0.0000000000,0.0000000000,0.0000000000,0.0000000000,-0.0000000000,-0.0000000000,-0.0000000000,-0.0000000000,-0.0000000000,-0.0000000000,0.0000000000,-1069.7939453125,521.9077758789,-0.1414008737,0.0400419235,inf,0.0100700855,inf,0.0200972557,0.0400109291,0.0499727726,0.0200874805,0.0801408291,0.0399990082,0.0200812817,0.0100567341,0.0200755596,0.0000185966,0.0301198959,0.1501569748,262103
1777394128.5137176514,0.0298968907,0.0302107446,0.0996278077,2.9175627917,1.1315356203,-0.0010002531,nan,3.8269796371,3.8271052837,nan,nan,nan,nan,-0.0007793433,-0.0008962284,0.0068267002,-0.9100083113,-0.2699396908,-1.3200873137,-0.0218311325,0.0094647957,0.1608375460,0.2198390337,-0.4061252710,2.2753090386,0.0000000000,0.0000000000,0.0000000000,0.0000000000,0.0000000000,-0.0052680569,0.0000000000,0.0000000000,0.0000000000,0.0000000000,0.0000000000,0.0000000000,0.0000000000,0.0000000000,0.0000000000,0.0000000000,0.0000000000,-0.0000000000,-0.0000000000,-0.0000000000,-0.0000000000,-0.0000000000,-0.0000000000,0.0000000000,-1069.7939453125,521.9077758789,-0.1414008737,0.0000219345,inf,0.0200235844,inf,0.0300507545,0.0499644279,0.0599262714,0.0300409794,0.0900943279,0.0499525070,0.0300347805,0.0200102329,0.0300290585,0.0099720955,0.0400733948,0.1601104736,262103
1777394128.5237278938,0.0298968907,0.0302107446,0.0996278077,2.9175627917,1.1315356203,-0.0010002531,nan,3.8269796371,3.8271052837,nan,nan,nan,nan,-0.0007793433,-0.0008962284,0.0068267002,-0.9100083113,-0.2699396908,-1.3200873137,-0.0218311325,0.0094647957,0.1608375460,0.2198390337,-0.4061252710,2.2753090386,0.0000000000,0.0000000000,0.0000000000,0.0000000000,0.0000000000,-0.0037792271,0.0000000000,0.0000000000,0.0000000000,0.0000000000,0.0000000000,0.0000000000,0.0000000000,0.0000000000,0.0000000000,0.0000000000,0.0000000000,-0.0000000000,-0.0000000000,-0.0000000000,-0.0000000000,-0.0000000000,-0.0000000000,0.0000000000,-1069.7939453125,521.9077758789,-0.1414008737,0.0100321770,inf,0.0300338268,inf,0.0400609970,0.0599746704,0.0699365139,0.0400512218,0.0000205040,0.0599627495,0.0400450230,0.0300204754,0.0400393009,0.0199823380,0.0000107288,0.1701207161,262103
1777394128.5336768627,0.0298968907,0.0302107446,0.0996278077,2.9175627917,1.1315356203,-0.0010002531,nan,3.8269796371,3.8271052837,nan,nan,nan,nan,-0.0007793433,-0.0008962284,0.0068267002,-0.9100083113,-0.2699396908,-1.3200873137,-0.0218311325,0.0094647957,0.1608375460,0.2198390337,-0.4061252710,2.2753090386,0.0000000000,0.0000000000,0.0000000000,0.0000000000,0.0000000000,-0.0037792271,0.0000000000,0.0000000000,0.0000000000,0.0000000000,0.0000000000,0.0000000000,0.0000000000,0.0000000000,0.0000000000,0.0000000000,0.0000000000,-0.0000000000,-0.0000000000,-0.0000000000,-0.0000000000,-0.0000000000,-0.0000000000,0.0000000000,-1069.7939453125,521.9077758789,-0.1414008737,0.0199811459,inf,0.0399827957,inf,0.0500099659,0.0699236393,0.0798854828,0.0500001907,0.0099694729,0.0699117184,0.0499939919,0.0399694443,0.0000166893,0.0299313068,0.0099596977,0.1800696850,262103
1777394128.5437693596,0.0298968907,0.0302107446,0.0996278077,2.9175627917,1.1315356203,-0.0010002531,nan,3.8269796371,3.8270974159,nan,nan,nan,nan,-0.0007793433,-0.0008962284,0.0068267002,-0.9100083113,-0.2699396908,-1.3200873137,-0.0218311325,0.0094647957,0.1608375460,0.2198390337,-0.4061252710,2.2753090386,0.0000000000,0.0000000000,0.0000000000,0.0000000000,0.0000000000,-0.0037792271,0.0000000000,0.0000000000,0.0000000000,0.0000000000,0.0000000000,0.0000000000,0.0000000000,0.0000000000,0.0000000000,0.0000000000,0.0000000000,-0.0000000000,-0.0000000000,-0.0000000000,-0.0000000000,-0.0000000000,-0.0000000000,0.0000000000,-1069.7939453125,521.9077758789,-0.1414008737,0.0300736427,inf,0.0000402927,inf,0.0601024628,0.0800161362,0.0899779797,0.0600926876,0.0200619698,0.0800042152,0.0000247955,0.0000162125,0.0101091862,0.0400238037,0.0200521946,0.1901621819,262103
1777394128.5537736416,0.0298968907,0.0302107446,0.0996278077,2.9175627917,1.1315356203,-0.0010002531,nan,3.8269796371,3.8270974159,nan,nan,nan,nan,-0.0007793433,-0.0008962284,0.0068267002,-0.9100083113,-0.2699396908,-1.3200873137,0.1124968156,0.3747202158,0.0635179505,1.3441203766,3.6548407071,-0.9738051778,0.0000000000,0.0000000000,0.0000000000,0.0000000000,0.0000000000,-0.0037792271,0.0000000000,0.0000000000,0.0000000000,0.0000000000,0.0000000000,0.0000000000,0.0000000000,0.0000000000,0.0000000000,0.0000000000,0.0000000000,-0.0000000000,-0.0000000000,-0.0000000000,-0.0000000000,-0.0000000000,-0.0000000000,0.0000000000,-1069.7939453125,521.9077758789,-0.1414008737,0.0400779247,inf,0.0100445747,inf,0.0701067448,0.0900204182,0.0000448227,0.0700969696,0.0300662518,0.0900084972,0.0100290775,0.0100204945,0.0201134682,0.0000274181,0.0300564766,0.0000176430,262103
1777394128.5637474060,0.0294904523,0.0302766766,0.0995616019,2.9525749534,1.0643130095,0.0012827680,nan,3.8269796371,3.8270974159,nan,nan,nan,nan,-0.0007793433,-0.0008962284,0.0068267002,-0.8750818968,-0.1931790411,-1.4460270405,0.1124968156,0.3747202158,0.0635179505,1.3441203766,3.6548407071,-0.9738051778,0.0000000000,0.0000000000,0.0000000000,0.0000000000,0.0000000000,-0.0037792271,0.0000000000,0.0000000000,0.0000000000,0.0000000000,0.0000000000,0.0000000000,0.0000000000,0.0000000000,0.0000000000,0.0000000000,0.0000000000,-0.0000000000,-0.0000000000,-0.0000000000,-0.0000000000,-0.0000000000,-0.0000000000,0.0000000000,-1099.8383789062,463.9747619629,-0.1231122464,0.0000476837,inf,0.0200183392,inf,0.0800805092,0.0000231266,0.0100185871,0.0800707340,0.0400400162,0.0000140667,0.0200028419,0.0199942589,0.0300872326,0.0100011826,0.0400302410,0.0099914074,262103
1777394128.5737373829,0.0294904523,0.0302766766,0.0995616019,2.9525749534,1.0643130095,0.0012827680,nan,3.8269796371,3.8270974159,nan,nan,nan,nan,-0.0007793433,-0.0008962284,0.0068267002,-0.8750818968,-0.1931790411,-1.4460270405,0.1124968156,0.3747202158,0.0635179505,1.3441203766,3.6548407071,-0.9738051778,0.0000000000,0.0000000000,0.0000000000,0.0000000000,0.0000000000,-0.0037792271,0.0000000000,0.0000000000,0.0000000000,0.0000000000,0.0000000000,0.0000000000,0.0000000000,0.0000000000,0.0000000000,0.0000000000,0.0000000000,-0.0000000000,-0.0000000000,-0.0000000000,-0.0000000000,-0.0000000000,-0.0000000000,0.0000000000,-1099.8383789062,463.9747619629,-0.1231122464,0.0100376606,inf,0.0300083160,inf,0.0900704861,0.0100131035,0.0200085640,0.0000321865,0.0500299931,0.0100040436,0.0299928188,0.0299842358,0.0400772095,0.0199911594,0.0000164509,0.0199813843,262103
1777394128.5837874413,0.0294904523,0.0302766766,0.0995616019,2.9525749534,1.0643130095,0.0012827680,nan,3.8269796371,3.8270974159,nan,nan,nan,nan,-0.0031438132,-0.0011511913,0.0087269088,-0.8750818968,-0.1931790411,-1.4460270405,0.1124968156,0.3747202158,0.0635179505,1.3441203766,3.6548407071,-0.9738051778,0.0000000000,0.0000000000,0.0000000000,0.0000000000,0.0000000000,-0.0037792271,0.0000000000,0.0000000000,0.0000000000,0.0000000000,0.0000000000,0.0000000000,0.0000000000,0.0000000000,0.0000000000,0.0000000000,0.0000000000,-0.0000000000,-0.0000000000,-0.0000000000,-0.0000000000,-0.0000000000,-0.0000000000,0.0000000000,-1099.8383789062,463.9747619629,-0.1231122464,0.0200877190,inf,0.0400583744,inf,0.0000491142,0.0200631618,0.0300586224,0.0100822449,0.0600800514,0.0200541019,0.0000331402,0.0400342941,0.0000176430,0.0300412178,0.0100665092,0.0300314426,262103
1777394128.5937156677,0.0294904523,0.0302766766,0.0995616019,2.9525749534,1.0643130095,0.0012827680,nan,3.8269796371,3.8270912170,nan,nan,nan,nan,-0.0031438132,-0.0011511913,0.0087269088,-0.8750818968,-0.1931790411,-1.4460270405,0.1124968156,0.3747202158,0.0635179505,1.3441203766,3.6548407071,-0.9738051778,0.0000000000,0.0000000000,0.0000000000,0.0000000000,0.0000000000,-0.0037792271,0.0000000000,0.0000000000,0.0000000000,0.0000000000,0.0000000000,0.0000000000,0.0000000000,0.0000000000,0.0000000000,0.0000000000,0.0000000000,-0.0000000000,-0.0000000000,-0.0000000000,-0.0000000000,-0.0000000000,-0.0000000000,0.0000000000,-1099.8383789062,463.9747619629,-0.1231122464,0.0300159454,inf,0.0000259876,inf,0.0099773407,0.0299913883,0.0399868488,0.0200104713,0.0700082779,0.0299823284,0.0099613667,0.0000131130,0.0099458694,0.0399694443,0.0199947357,0.0399596691,262103
1777394128.6036868095,0.0294904523,0.0302766766,0.0995616019,2.9525749534,1.0643130095,0.0012827680,nan,3.8269796371,3.8270912170,nan,nan,nan,nan,-0.0031438132,-0.0011511913,0.0087269088,-0.8750818968,-0.1931790411,-1.4460270405,0.1124968156,0.3747202158,0.0635179505,1.3441203766,3.6548407071,-0.9738051778,0.0000000000,0.0000000000,0.0000000000,0.0000000000,0.0000000000,-0.0037792271,0.0000000000,0.0000000000,0.0000000000,0.0000000000,0.0000000000,0.0000000000,0.0000000000,0.0000000000,0.0000000000,0.0000000000,0.0000000000,-0.0000000000,-0.0000000000,-0.0000000000,-0.0000000000,-0.0000000000,-0.0000000000,0.0000000000,-1099.8383789062,463.9747619629,-0.1231122464,0.0399870872,inf,0.0099971294,inf,0.0199484825,0.0399625301,0.0499579906,0.0299816132,0.0799794197,0.0399534702,0.0199325085,0.0099842548,0.0199170113,0.0000157356,0.0299658775,0.0499308109,262103
1777394128.6136596203,0.0290250517,0.0303508155,0.0995059684,2.9761403821,1.0021054927,-0.0021657522,nan,3.8269796371,3.8270912170,nan,nan,nan,nan,-0.0031438132,-0.0011511913,0.0087269088,-0.8750818968,-0.1931790411,-1.4460270405,0.1124968156,0.3747202158,0.0635179505,1.3441203766,3.6548407071,-0.9738051778,0.0000000000,0.0000000000,0.0000000000,0.0000000000,0.0000000000,-0.0037792271,0.0000000000,0.0000000000,0.0000000000,0.0000000000,0.0000000000,0.0000000000,0.0000000000,0.0000000000,0.0000000000,0.0000000000,0.0000000000,-0.0000000000,-0.0000000000,-0.0000000000,-0.0000000000,-0.0000000000,-0.0000000000,0.0000000000,-1099.8383789062,463.9747619629,-0.1231122464,0.0000123978,inf,0.0199699402,inf,0.0299212933,0.0499353409,0.0599308014,0.0399544239,0.0899522305,0.0499262810,0.0299053192,0.0199570656,0.0298898220,0.0099885464,0.0399386883,0.0599036217,262103
1777394128.6236884594,0.0290250517,0.0303508155,0.0995059684,2.9761403821,1.0021054927,-0.0021657522,nan,3.8269796371,3.8270912170,nan,nan,nan,nan,-0.0031438132,-0.0011511913,0.0087269088,-0.8750818968,-0.1931790411,-1.4460270405,0.1124968156,0.3747202158,0.0635179505,1.3441203766,3.6548407071,-0.9738051778,0.0000000000,0.0000000000,0.0000000000,0.0000000000,0.0000000000,-0.0067838207,0.0000000000,0.0000000000,0.0000000000,0.0000000000,0.0000000000,0.0000000000,0.0000000000,0.0000000000,0.0000000000,0.0000000000,0.0000000000,-0.0000000000,-0.0000000000,-0.0000000000,-0.0000000000,-0.0000000000,-0.0000000000,0.0000000000,-1099.8383789062,463.9747619629,-0.1231122464,0.0100412369,inf,0.0299987793,inf,0.0399501324,0.0599641800,0.0699596405,0.0499832630,0.0000243187,0.0599551201,0.0399341583,0.0299859047,0.0399186611,0.0200173855,0.0000123978,0.0699324608,262103
1777394128.6337246895,0.0290250517,0.0303508155,0.0995059684,2.9761403821,1.0021054927,-0.0021657522,3.8259999752,3.8269796371,3.8270912170,nan,nan,nan,nan,-0.0031438132,-0.0011511913,0.0087269088,-0.8750818968,-0.1931790411,-1.4460270405,0.1124968156,0.3747202158,0.0635179505,1.3441203766,3.6548407071,-0.9738051778,0.0000000000,0.0000000000,0.0000000000,0.0000000000,0.0000000000,-0.0067838207,0.0000000000,0.0000000000,0.0000000000,0.0000000000,0.0000000000,0.0000000000,0.0000000000,0.0000000000,0.0000000000,0.0000000000,0.0000000000,-0.0000000000,-0.0000000000,-0.0000000000,-0.0000000000,-0.0000000000,-0.0000000000,0.0000000000,-1099.8383789062,463.9747619629,-0.1231122464,0.0200774670,0.0000481606,0.0400350094,inf,0.0499863625,0.0700004101,0.0799958706,0.0600194931,0.0100605488,0.0699913502,0.0000236034,0.0400221348,0.0000131130,0.0300536156,0.0100486279,0.0799686909,262111
1777394128.6437149048,0.0290250517,0.0303508155,0.0995059684,2.9761403821,1.0021054927,-0.0021657522,3.8259999752,3.8269796371,3.8270854950,nan,nan,nan,nan,-0.0031438132,-0.0011511913,0.0087269088,-0.8750818968,-0.1931790411,-1.4460270405,0.1124968156,0.3747202158,0.0635179505,1.3441203766,3.6548407071,-0.9738051778,0.0000000000,0.0000000000,0.0000000000,0.0000000000,0.0000000000,-0.0067838207,0.0000000000,0.0000000000,0.0000000000,0.0000000000,0.0000000000,0.0000000000,0.0000000000,0.0000000000,0.0000000000,0.0000000000,0.0000000000,-0.0000000000,-0.0000000000,-0.0000000000,-0.0000000000,-0.0000000000,-0.0000000000,0.0000000000,-1099.8383789062,463.9747619629,-0.1231122464,0.0300676823,0.0100383759,0.0000350475,inf,0.0599765778,0.0799906254,0.0899860859,0.0700097084,0.0200507641,0.0799815655,0.0100138187,0.0000140667,0.0100033283,0.0400438309,0.0200388432,0.0899589062,262111
1777394128.6537091732,0.0290250517,0.0303508155,0.0995059684,2.9761403821,1.0021054927,-0.0021657522,3.8259999752,3.8269796371,3.8270854950,nan,nan,nan,nan,-0.0031438132,-0.0011511913,0.0087269088,-0.8750818968,-0.1931790411,-1.4460270405,0.0492840707,-0.1092603132,0.0277860276,-0.6325020367,-4.8426732750,-0.3575309695,0.0000000000,0.0000000000,0.0000000000,0.0000000000,0.0000000000,-0.0067838207,0.0000000000,0.0000000000,0.0000000000,0.0000000000,0.0000000000,0.0000000000,0.0000000000,0.0000000000,0.0000000000,0.0000000000,0.0000000000,-0.0000000000,-0.0000000000,-0.0000000000,-0.0000000000,-0.0000000000,-0.0000000000,0.0000000000,-1099.8383789062,463.9747619629,-0.1231122464,0.0400619507,0.0200326443,0.0100293159,inf,0.0699708462,0.0899848938,0.0000395775,0.0800039768,0.0300450325,0.0899758339,0.0200080872,0.0100083351,0.0199975967,0.0000162125,0.0300331116,0.0999531746,262111
1777394128.6637971401,0.0284908842,0.0304275919,0.0994898900,2.9980469730,0.9385286074,-0.0013562367,3.8259999752,3.8269796371,3.8270854950,nan,nan,nan,nan,-0.0031438132,-0.0011511913,0.0087269088,-0.8186979890,-0.1482560486,-1.5552678108,0.0492840707,-0.1092603132,0.0277860276,-0.6325020367,-4.8426732750,-0.3575309695,0.0000000000,0.0000000000,0.0000000000,0.0000000000,0.0000000000,-0.0067838207,0.0000000000,0.0000000000,0.0000000000,0.0000000000,0.0000000000,0.0000000000,0.0000000000,0.0000000000,0.0000000000,0.0000000000,0.0000000000,-0.0000000000,-0.0000000000,-0.0000000000,-0.0000000000,-0.0000000000,-0.0000000000,0.0000000000,-1117.1347656250,409.4713439941,0.2780393958,0.0001001358,0.0301206112,0.0201172829,inf,0.0800588131,0.0000617504,0.0101275444,0.0000398159,0.0401329994,0.0000185966,0.0300960541,0.0200963020,0.0300855637,0.0101041794,0.0401210785,0.1100411415,262111
1777394128.6736865044,0.0284908842,0.0304275919,0.0994898900,2.9980469730,0.9385286074,-0.0013562367,3.8259999752,3.8269796371,3.8270854950,nan,nan,nan,nan,-0.0031438132,-0.0011511913,0.0087269088,-0.8186979890,-0.1482560486,-1.5552678108,0.0492840707,-0.1092603132,0.0277860276,-0.6325020367,-4.8426732750,-0.3575309695,0.0000000000,0.0000000000,0.0000000000,0.0000000000,0.0000000000,-0.0067838207,0.0000000000,0.0000000000,0.0000000000,0.0000000000,0.0000000000,0.0000000000,0.0000000000,0.0000000000,0.0000000000,0.0000000000,0.0000000000,-0.0000000000,-0.0000000000,-0.0000000000,-0.0000000000,-0.0000000000,-0.0000000000,0.0000000000,-1117.1347656250,409.4713439941,0.2780393958,0.0099895000,0.0400099754,0.0300066471,inf,0.0899481773,0.0099511147,0.0200169086,0.0099291801,0.0500223637,0.0099079609,0.0399854183,0.0299856663,0.0399749279,0.0199935436,0.0000200272,0.1199305058,262111
1777394128.6838304996,0.0284908842,0.0304275919,0.0994898900,2.9980469730,0.9385286074,-0.0013562367,3.8259999752,3.8269796371,3.8270854950,nan,nan,nan,nan,-0.0070059174,-0.0018195823,0.0097647766,-0.8186979890,-0.1482560486,-1.5552678108,0.0492840707,-0.1092603132,0.0277860276,-0.6325020367,-4.8426732750,-0.3575309695,0.0000000000,0.0000000000,0.0000000000,0.0000000000,0.0000000000,-0.0067838207,0.0000000000,0.0000000000,0.0000000000,0.0000000000,0.0000000000,0.0000000000,0.0000000000,0.0000000000,0.0000000000,0.0000000000,0.0000000000,-0.0000000000,-0.0000000000,-0.0000000000,-0.0000000000,-0.0000000000,-0.0000000000,0.0000000000,-1117.1347656250,409.4713439941,0.2780393958,0.0201334953,0.0501539707,0.0401506424,inf,0.0000693798,0.0200951099,0.0301609039,0.0200731754,0.0601663589,0.0200519562,0.0000410080,0.0401296616,0.0000200272,0.0301375389,0.0101640224,0.1300745010,262111
1777394128.6938087940,0.0284908842,0.0304275919,0.0994898900,2.9980469730,0.9385286074,-0.0013562367,3.8259999752,3.8269796371,3.8270792961,nan,nan,nan,nan,-0.0070059174,-0.0018195823,0.0097647766,-0.8186979890,-0.1482560486,-1.5552678108,0.0492840707,-0.1092603132,0.0277860276,-0.6325020367,-4.8426732750,-0.3575309695,0.0000000000,0.0000000000,0.0000000000,0.0000000000,0.0000000000,-0.0067838207,0.0000000000,0.0000000000,0.0000000000,0.0000000000,0.0000000000,0.0000000000,0.0000000000,0.0000000000,0.0000000000,0.0000000000,0.0000000000,-0.0000000000,-0.0000000000,-0.0000000000,-0.0000000000,-0.0000000000,-0.0000000000,0.0000000000,-1117.1347656250,409.4713439941,0.2780393958,0.0301117897,0.0601322651,0.0000476837,inf,0.0100476742,0.0300734043,0.0401391983,0.0300514698,0.0701446533,0.0300302505,0.0100193024,0.0000195503,0.0099983215,0.0401158333,0.0201423168,0.1400527954,262111
1777394128.7037765980,0.0284908842,0.0304275919,0.0994898900,2.9980469730,0.9385286074,-0.0013562367,3.8259999752,3.8269796371,3.8270792961,nan,nan,nan,nan,-0.0070059174,-0.0018195823,0.0097647766,-0.8186979890,-0.1482560486,-1.5552678108,0.0492840707,-0.1092603132,0.0277860276,-0.6325020367,-4.8426732750,-0.3575309695,0.0000000000,0.0000000000,0.0000000000,0.0000000000,0.0000000000,-0.0067838207,0.0000000000,0.0000000000,0.0000000000,0.0000000000,0.0000000000,0.0000000000,0.0000000000,0.0000000000,0.0000000000,0.0000000000,0.0000000000,-0.0000000000,-0.0000000000,-0.0000000000,-0.0000000000,-0.0000000000,-0.0000000000,0.0000000000,-1117.1347656250,409.4713439941,0.2780393958,0.0400795937,0.0701000690,0.0100154877,inf,0.0200154781,0.0400412083,0.0501070023,0.0400192738,0.0801124573,0.0399980545,0.0199871063,0.0099873543,0.0199661255,0.0000262260,0.0301101208,0.1500205994,262111
1777394128.7136950493,0.0278802849,0.0305236820,0.0995057672,3.0132536446,0.8825637045,0.0006372200,3.8259999752,3.8269796371,3.8270792961,nan,nan,nan,nan,-0.0070059174,-0.0018195823,0.0097647766,-0.8186979890,-0.1482560486,-1.5552678108,0.0492840707,-0.1092603132,0.0277860276,-0.6325020367,-4.8426732750,-0.3575309695,0.0000000000,0.0000000000,0.0000000000,0.0000000000,0.0000000000,-0.0067838207,0.0000000000,0.0000000000,0.0000000000,0.0000000000,0.0000000000,0.0000000000,0.0000000000,0.0000000000,0.0000000000,0.0000000000,0.0000000000,-0.0000000000,-0.0000000000,-0.0000000000,-0.0000000000,-0.0000000000,-0.0000000000,0.0000000000,-1117.1347656250,409.4713439941,0.2780393958,0.0000162125,0.0800185204,0.0199339390,inf,0.0299339294,0.0499596596,0.0600254536,0.0499377251,0.0900309086,0.0499165058,0.0299055576,0.0199058056,0.0298845768,0.0099446774,0.0400285721,0.1599390507,262111
1777394128.7237081528,0.0278802849,0.0305236820,0.0995057672,3.0132536446,0.8825637045,0.0006372200,3.8259999752,3.8269796371,3.8270792961,nan,nan,nan,nan,-0.0070059174,-0.0018195823,0.0097647766,-0.8186979890,-0.1482560486,-1.5552678108,0.0492840707,-0.1092603132,0.0277860276,-0.6325020367,-4.8426732750,-0.3575309695,0.0000000000,0.0000000000,0.0000000000,0.0000000000,0.0000000000,-0.0079339845,0.0000000000,0.0000000000,0.0000000000,0.0000000000,0.0000000000,0.0000000000,0.0000000000,0.0000000000,0.0000000000,0.0000000000,0.0000000000,-0.0000000000,-0.0000000000,-0.0000000000,-0.0000000000,-0.0000000000,-0.0000000000,0.0000000000,-1117.1347656250,409.4713439941,0.2780393958,0.0100293159,0.0900316238,0.0299470425,inf,0.0399470329,0.0599727631,0.0700385571,0.0599508286,0.0000317097,0.0599296093,0.0399186611,0.0299189091,0.0398976803,0.0199577808,0.0000131130,0.1699521542,262111
1777394128.7337911129,0.0278802849,0.0305236820,0.0995057672,3.0132536446,0.8825637045,0.0006372200,3.8259999752,3.8269796371,3.8270792961,nan,nan,nan,nan,-0.0070059174,-0.0018195823,0.0097647766,-0.8186979890,-0.1482560486,-1.5552678108,0.0492840707,-0.1092603132,0.0277860276,-0.6325020367,-4.8426732750,-0.3575309695,0.0000000000,0.0000000000,0.0000000000,0.0000000000,0.0000000000,-0.0079339845,0.0000000000,0.0000000000,0.0000000000,0.0000000000,0.0000000000,0.0000000000,0.0000000000,0.0000000000,0.0000000000,0.0000000000,0.0000000000,-0.0000000000,-0.0000000000,-0.0000000000,-0.0000000000,-0.0000000000,-0.0000000000,0.0000000000,-1117.1347656250,409.4713439941,0.2780393958,0.0201122761,0.1001145840,0.0400300026,inf,0.0500299931,0.0700557232,0.0801215172,0.0700337887,0.0101146698,0.0700125694,0.0000412464,0.0400018692,0.0000166893,0.0300407410,0.0100960732,0.1800351143,262111
1777394128.7439067364,0.0278802849,0.0305236820,0.0995057672,3.0132536446,0.8825637045,0.0006372200,3.8259999752,3.8269796371,3.8270735741,nan,nan,nan,nan,-0.0070059174,-0.0018195823,0.0097647766,-0.8186979890,-0.1482560486,-1.5552678108,0.0492840707,-0.1092603132,0.0277860276,-0.6325020367,-4.8426732750,-0.3575309695,0.0000000000,0.0000000000,0.0000000000,0.0000000000,0.0000000000,-0.0079339845,0.0000000000,0.0000000000,0.0000000000,0.0000000000,0.0000000000,0.0000000000,0.0000000000,0.0000000000,0.0000000000,0.0000000000,0.0000000000,-0.0000000000,-0.0000000000,-0.0000000000,-0.0000000000,-0.0000000000,-0.0000000000,0.0000000000,-1117.1347656250,409.4713439941,0.2780393958,0.0302278996,0.1102302074,0.0000731945,inf,0.0601456165,0.0801713467,0.0902371407,0.0801494122,0.0202302933,0.0801281929,0.0101568699,0.0000431538,0.0101323128,0.0000209808,0.0202116966,0.1901507378,262111
1777394128.7538006306,0.0278802849,0.0305236820,0.0995057672,3.0132536446,0.8825637045,0.0006372200,3.8259999752,3.8269796371,3.8270735741,nan,nan,nan,nan,-0.0070059174,-0.0018195823,0.0097647766,-0.8186979890,-0.1482560486,-1.5552678108,0.0492840707,-0.1092603132,0.0277860276,-0.6325020367,-4.8426732750,-0.3575309695,0.0000000000,0.0000000000,0.0000000000,0.0000000000,0.0000000000,-0.0079339845,0.0000000000,0.0000000000,0.0000000000,0.0000000000,0.0000000000,0.0000000000,0.0000000000,0.0000000000,0.0000000000,0.0000000000,0.0000000000,-0.0000000000,-0.0000000000,-0.0000000000,-0.0000000000,-0.0000000000,-0.0000000000,0.0000000000,-1117.1347656250,409.4713439941,0.2780393958,0.0401217937,0.1201241016,0.0099670887,inf,0.0700395107,0.0900652409,0.1001310349,0.0000486374,0.0301241875,0.0900220871,0.0200507641,0.0099370480,0.0200262070,0.0099148750,0.0301055908,0.0000195503,262111
1777394128.7639491558,0.0308755450,0.0300121196,0.1000134721,3.0257571571,0.8241707211,-0.0022825048,3.8259999752,3.8269796371,3.8270735741,nan,nan,nan,nan,-0.0070059174,-0.0018195823,0.0097647766,-0.7511718273,-0.1166680306,-1.6494894028,-0.0703387931,0.0117528168,0.1476932615,-1.0851625171,1.0977743603,1.0877421887,0.0000000000,0.0000000000,0.0000000000,0.0000000000,0.0000000000,-0.0079339845,0.0000000000,0.0000000000,0.0000000000,0.0000000000,0.0000000000,0.0000000000,0.0000000000,0.0000000000,0.0000000000,0.0000000000,0.0000000000,-0.0000000000,-0.0000000000,-0.0000000000,-0.0000000000,-0.0000000000,-0.0000000000,0.0000000000,-1128.4398193359,359.3601989746,-0.4834655225,0.0001199245,0.1302726269,0.0201156139,inf,0.0801880360,0.0000696182,0.0000445843,0.0101971626,0.0402727127,0.0000216961,0.0301992893,0.0200855732,0.0301747322,0.0200634003,0.0402541161,0.0101680756,262111
1777394128.7737956047,0.0308755450,0.0300121196,0.1000134721,3.0257571571,0.8241707211,-0.0022825048,3.8259999752,3.8269796371,3.8270735741,nan,nan,nan,nan,-0.0070059174,-0.0018195823,0.0097647766,-0.7511718273,-0.1166680306,-1.6494894028,-0.0703387931,0.0117528168,0.1476932615,-1.0851625171,1.0977743603,1.0877421887,0.0000000000,0.0000000000,0.0000000000,0.0000000000,0.0000000000,-0.0079339845,0.0000000000,0.0000000000,0.0000000000,0.0000000000,0.0000000000,0.0000000000,0.0000000000,0.0000000000,0.0000000000,0.0000000000,0.0000000000,-0.0000000000,-0.0000000000,-0.0000000000,-0.0000000000,-0.0000000000,-0.0000000000,0.0000000000,-1128.4398193359,359.3601989746,-0.4834655225,0.0099663734,0.1401190758,0.0299620628,inf,0.0900344849,0.0099160671,0.0098910332,0.0200436115,0.0501191616,0.0098681450,0.0400457382,0.0299320221,0.0400211811,0.0299098492,0.0000290871,0.0200145245,262111
1777394128.7838623524,0.0308755450,0.0300121196,0.1000134721,3.0257571571,0.8241707211,-0.0022825048,3.8259999752,3.8269796371,3.8270735741,nan,nan,nan,nan,-0.0038567141,-0.0000922808,0.0013510591,-0.7511718273,-0.1166680306,-1.6494894028,-0.0703387931,0.0117528168,0.1476932615,-1.0851625171,1.0977743603,1.0877421887,0.0000000000,0.0000000000,0.0000000000,0.0000000000,0.0000000000,-0.0079339845,0.0000000000,0.0000000000,0.0000000000,0.0000000000,0.0000000000,0.0000000000,0.0000000000,0.0000000000,0.0000000000,0.0000000000,0.0000000000,-0.0000000000,-0.0000000000,-0.0000000000,-0.0000000000,-0.0000000000,-0.0000000000,0.0000000000,-1128.4398193359,359.3601989746,-0.4834655225,0.0200331211,0.1501858234,0.0400288105,inf,0.0000758171,0.0199828148,0.0199577808,0.0301103592,0.0601859093,0.0199348927,0.0000450611,0.0399987698,0.0000219345,0.0399765968,0.0100958347,0.0300812721,262111
1777394128.7938034534,0.0308755450,0.0300121196,0.1000134721,3.0257571571,0.8241707211,-0.0022825048,3.8259999752,3.8269796371,3.8270673752,nan,nan,nan,nan,-0.0038567141,-0.0000922808,0.0013510591,-0.7511718273,-0.1166680306,-1.6494894028,-0.0703387931,0.0117528168,0.1476932615,-1.0851625171,1.0977743603,1.0877421887,0.0000000000,0.0000000000,0.0000000000,0.0000000000,0.0000000000,-0.0079339845,0.0000000000,0.0000000000,0.0000000000,0.0000000000,0.0000000000,0.0000000000,0.0000000000,0.0000000000,0.0000000000,0.0000000000,0.0000000000,-0.0000000000,-0.0000000000,-0.0000000000,-0.0000000000,-0.0000000000,-0.0000000000,0.0000000000,-1128.4398193359,359.3601989746,-0.4834655225,0.0299742222,0.1601269245,0.0000503063,inf,0.0100169182,0.0299239159,0.0298988819,0.0400514603,0.0701270103,0.0298759937,0.0099861622,0.0000205040,0.0099630356,0.0499176979,0.0200369358,0.0400223732,262111
1777394128.8038129807,0.0308755450,0.0300121196,0.1000134721,3.0257571571,0.8241707211,-0.0022825048,3.8259999752,3.8269796371,3.8270673752,nan,nan,nan,nan,-0.0038567141,-0.0000922808,0.0013510591,-0.7511718273,-0.1166680306,-1.6494894028,-0.0703387931,0.0117528168,0.1476932615,-1.0851625171,1.0977743603,1.0877421887,0.0000000000,0.0000000000,0.0000000000,0.0000000000,0.0000000000,-0.0079339845,0.0000000000,0.0000000000,0.0000000000,0.0000000000,0.0000000000,0.0000000000,0.0000000000,0.0000000000,0.0000000000,0.0000000000,0.0000000000,-0.0000000000,-0.0000000000,-0.0000000000,-0.0000000000,-0.0000000000,-0.0000000000,0.0000000000,-1128.4398193359,359.3601989746,-0.4834655225,0.0399837494,0.1701364517,0.0100598335,inf,0.0200264454,0.0399334431,0.0399084091,0.0500609875,0.0801365376,0.0398855209,0.0199956894,0.0100300312,0.0199725628,0.0000281334,0.0300464630,0.0500319004,262111
1777394128.8137946129,0.0306902509,0.0300014205,0.1001158580,3.0402034367,0.7728592736,0.0005945457,3.8259999752,3.8269796371,3.8270673752,nan,nan,nan,nan,-0.0038567141,-0.0000922808,0.0013510591,-0.7511718273,-0.1166680306,-1.6494894028,-0.0703387931,0.0117528168,0.1476932615,-1.0851625171,1.0977743603,1.0877421887,0.0000000000,0.0000000000,0.0000000000,0.0000000000,0.0000000000,-0.0079339845,0.0000000000,0.0000000000,0.0000000000,0.0000000000,0.0000000000,0.0000000000,0.0000000000,0.0000000000,0.0000000000,0.0000000000,0.0000000000,-0.0000000000,-0.0000000000,-0.0000000000,-0.0000000000,-0.0000000000,-0.0000000000,0.0000000000,-1128.4398193359,359.3601989746,-0.4834655225,0.0000262260,0.1801180840,0.0200414658,inf,0.0300080776,0.0499150753,0.0498900414,0.0600426197,0.0901181698,0.0498671532,0.0299773216,0.0200116634,0.0299541950,0.0100097656,0.0400280952,0.0600135326,262111
1777394128.8238062859,0.0306902509,0.0300014205,0.1001158580,3.0402034367,0.7728592736,0.0005945457,3.8259999752,3.8269796371,3.8270673752,nan,nan,nan,nan,-0.0038567141,-0.0000922808,0.0013510591,-0.7511718273,-0.1166680306,-1.6494894028,-0.0703387931,0.0117528168,0.1476932615,-1.0851625171,1.0977743603,1.0877421887,0.0000000000,0.0000000000,0.0000000000,0.0000000000,0.0000000000,-0.0091327354,0.0000000000,0.0000000000,0.0000000000,0.0000000000,0.0000000000,0.0000000000,0.0000000000,0.0000000000,0.0000000000,0.0000000000,0.0000000000,-0.0000000000,-0.0000000000,-0.0000000000,-0.0000000000,-0.0000000000,-0.0000000000,0.0000000000,-1128.4398193359,359.3601989746,-0.4834655225,0.0100378990,0.1901297569,0.0300531387,inf,0.0400197506,0.0599267483,0.0599017143,0.0700542927,0.0000472069,0.0598788261,0.0399889946,0.0300233364,0.0399658680,0.0200214386,0.0000197887,0.0700252056,262111
1777394128.8338267803,0.0306902509,0.0300014205,0.1001158580,3.0402034367,0.7728592736,0.0005945457,3.8259999752,3.8269796371,3.8270673752,nan,nan,nan,nan,-0.0038567141,-0.0000922808,0.0013510591,-0.7511718273,-0.1166680306,-1.6494894028,-0.0703387931,0.0117528168,0.1476932615,-1.0851625171,1.0977743603,1.0877421887,0.0000000000,0.0000000000,0.0000000000,0.0000000000,0.0000000000,-0.0091327354,0.0000000000,0.0000000000,0.0000000000,0.0000000000,0.0000000000,0.0000000000,0.0000000000,0.0000000000,0.0000000000,0.0000000000,0.0000000000,-0.0000000000,-0.0000000000,-0.0000000000,-0.0000000000,-0.0000000000,-0.0000000000,0.0000000000,-1128.4398193359,359.3601989746,-0.4834655225,0.0200583935,0.2001502514,0.0400736332,inf,0.0500402451,0.0699472427,0.0699222088,0.0800747871,0.0100677013,0.0698993206,0.0000495911,0.0400438309,0.0000207424,0.0300419331,0.0100402832,0.0800457001,262111
1777394128.8438138962,0.0306902509,0.0300014205,0.1001158580,3.0402034367,0.7728592736,0.0005945457,3.8259999752,3.8269796371,3.8270673752,nan,nan,nan,nan,-0.0038567141,-0.0000922808,0.0013510591,-0.7511718273,-0.1166680306,-1.6494894028,-0.0703387931,0.0117528168,0.1476932615,-1.0851625171,1.0977743603,1.0877421887,0.0000000000,0.0000000000,0.0000000000,0.0000000000,0.0000000000,-0.0091327354,0.0000000000,0.0000000000,0.0000000000,0.0000000000,0.0000000000,0.0000000000,0.0000000000,0.0000000000,0.0000000000,0.0000000000,0.0000000000,-0.0000000000,-0.0000000000,-0.0000000000,-0.0000000000,-0.0000000000,-0.0000000000,0.0000000000,-1128.4398193359,359.3601989746,-0.4834655225,0.0300455093,0.2101373672,0.0500607491,inf,0.0600273609,0.0799343586,0.0799093246,0.0000441074,0.0200548172,0.0798864365,0.0100367069,0.0000181198,0.0100078583,0.0400290489,0.0200273991,0.0900328159,262111
1777394128.8538622856,0.0306902509,0.0300014205,0.1001158580,3.0402034367,0.7728592736,0.0005945457,3.8259999752,3.8269796371,3.8270616531,nan,nan,nan,nan,-0.0038567141,-0.0000922808,0.0013510591,-0.7511718273,-0.1166680306,-1.6494894028,-0.1184157431,0.0982843414,0.1372984648,-0.5346931007,0.9623698914,-0.1156068780,0.0000000000,0.0000000000,0.0000000000,0.0000000000,0.0000000000,-0.0091327354,0.0000000000,0.0000000000,0.0000000000,0.0000000000,0.0000000000,0.0000000000,0.0000000000,0.0000000000,0.0000000000,0.0000000000,0.0000000000,-0.0000000000,-0.0000000000,-0.0000000000,-0.0000000000,-0.0000000000,-0.0000000000,0.0000000000,-1128.4398193359,359.3601989746,-0.4834655225,0.0400938988,0.2201857567,0.0000715256,inf,0.0700757504,0.0899827480,0.0000426769,0.0100924969,0.0301032066,0.0899348259,0.0200850964,0.0100665092,0.0200562477,0.0000200272,0.0300757885,0.1000812054,262111
1777394128.8639037609,0.0304522626,0.0299980361,0.1002427265,3.0502383527,0.7220892832,0.0010172301,3.8259999752,3.8269796371,3.8270616531,nan,nan,nan,nan,-0.0038567141,-0.0000922808,0.0013510591,-0.6822991967,-0.0968069881,-1.7247397900,-0.1184157431,0.0982843414,0.1372984648,-0.5346931007,0.9623698914,-0.1156068780,0.0000000000,0.0000000000,0.0000000000,0.0000000000,0.0000000000,-0.0091327354,0.0000000000,0.0000000000,0.0000000000,0.0000000000,0.0000000000,0.0000000000,0.0000000000,0.0000000000,0.0000000000,0.0000000000,0.0000000000,-0.0000000000,-0.0000000000,-0.0000000000,-0.0000000000,-0.0000000000,-0.0000000000,0.0000000000,-1136.4156494141,314.0256042480,-0.3403994739,0.0000929832,0.2302272320,0.0101130009,inf,0.0801172256,0.0000445843,0.0100841522,0.0201339722,0.0401446819,0.0000202656,0.0301265717,0.0201079845,0.0300977230,0.0100615025,0.0401172638,0.1101226807,262111
1777394128.8737137318,0.0304522626,0.0299980361,0.1002427265,3.0502383527,0.7220892832,0.0010172301,3.8259999752,3.8269796371,3.8270616531,nan,nan,nan,nan,-0.0038567141,-0.0000922808,0.0013510591,-0.6822991967,-0.0968069881,-1.7247397900,-0.1184157431,0.0982843414,0.1372984648,-0.5346931007,0.9623698914,-0.1156068780,0.0000000000,0.0000000000,0.0000000000,0.0000000000,0.0000000000,-0.0091327354,0.0000000000,0.0000000000,0.0000000000,0.0000000000,0.0000000000,0.0000000000,0.0000000000,0.0000000000,0.0000000000,0.0000000000,0.0000000000,-0.0000000000,-0.0000000000,-0.0000000000,-0.0000000000,-0.0000000000,-0.0000000000,0.0000000000,-1136.4156494141,314.0256042480,-0.3403994739,0.0099029541,0.2400372028,0.0199229717,inf,0.0899271965,0.0098545551,0.0198941231,0.0299439430,0.0499546528,0.0098302364,0.0399365425,0.0299179554,0.0399076939,0.0198714733,0.0000193119,0.1199326515,262111
1777394128.8837158680,0.0304522626,0.0299980361,0.1002427265,3.0502383527,0.7220892832,0.0010172301,3.8259999752,3.8269796371,3.8270616531,nan,nan,nan,nan,-0.0059760814,-0.0005514352,0.0020934341,-0.6822991967,-0.0968069881,-1.7247397900,-0.1184157431,0.0982843414,0.1372984648,-0.5346931007,0.9623698914,-0.1156068780,0.0000000000,0.0000000000,0.0000000000,0.0000000000,0.0000000000,-0.0091327354,0.0000000000,0.0000000000,0.0000000000,0.0000000000,0.0000000000,0.0000000000,0.0000000000,0.0000000000,0.0000000000,0.0000000000,0.0000000000,-0.0000000000,-0.0000000000,-0.0000000000,-0.0000000000,-0.0000000000,-0.0000000000,0.0000000000,-1136.4156494141,314.0256042480,-0.3403994739,0.0199050903,0.2500393391,0.0299251080,inf,0.0000424385,0.0198566914,0.0298962593,0.0399460793,0.0599567890,0.0198323727,0.0000250340,0.0399200916,0.0000121593,0.0298736095,0.0100214481,0.1299347878,262111
1777394128.8936531544,0.0304522626,0.0299980361,0.1002427265,3.0502383527,0.7220892832,0.0010172301,3.8259999752,3.8269796371,3.8270554543,nan,nan,nan,nan,-0.0059760814,-0.0005514352,0.0020934341,-0.6822991967,-0.0968069881,-1.7247397900,-0.1184157431,0.0982843414,0.1372984648,-0.5346931007,0.9623698914,-0.1156068780,0.0000000000,0.0000000000,0.0000000000,0.0000000000,0.0000000000,-0.0091327354,0.0000000000,0.0000000000,0.0000000000,0.0000000000,0.0000000000,0.0000000000,0.0000000000,0.0000000000,0.0000000000,0.0000000000,0.0000000000,-0.0000000000,-0.0000000000,-0.0000000000,-0.0000000000,-0.0000000000,-0.0000000000,0.0000000000,-1136.4156494141,314.0256042480,-0.3403994739,0.0298423767,0.2599766254,0.0000259876,inf,0.0099797249,0.0297939777,0.0398335457,0.0498833656,0.0698940754,0.0297696590,0.0099623203,0.0000107288,0.0099494457,0.0398108959,0.0199587345,0.1398720741,262111
1777394128.9037251472,0.0304522626,0.0299980361,0.1002427265,3.0502383527,0.7220892832,0.0010172301,3.8259999752,3.8269796371,3.8270554543,nan,nan,nan,nan,-0.0059760814,-0.0005514352,0.0020934341,-0.6822991967,-0.0968069881,-1.7247397900,-0.1184157431,0.0982843414,0.1372984648,-0.5346931007,0.9623698914,-0.1156068780,0.0000000000,0.0000000000,0.0000000000,0.0000000000,0.0000000000,-0.0091327354,0.0000000000,0.0000000000,0.0000000000,0.0000000000,0.0000000000,0.0000000000,0.0000000000,0.0000000000,0.0000000000,0.0000000000,0.0000000000,-0.0000000000,-0.0000000000,-0.0000000000,-0.0000000000,-0.0000000000,-0.0000000000,0.0000000000,-1136.4156494141,314.0256042480,-0.3403994739,0.0399143696,0.2700486183,0.0100979805,inf,0.0200517178,0.0398659706,0.0499055386,0.0599553585,0.0799660683,0.0398416519,0.0200343132,0.0100827217,0.0200214386,0.0000216961,0.0300307274,0.1499440670,262111
1777394128.9137320518,0.0301519800,0.0300183650,0.1003707126,3.0597525095,0.6718186470,0.0007485850,3.8259999752,3.8269796371,3.8270554543,nan,nan,nan,nan,-0.0059760814,-0.0005514352,0.0020934341,-0.6822991967,-0.0968069881,-1.7247397900,-0.1184157431,0.0982843414,0.1372984648,-0.5346931007,0.9623698914,-0.1156068780,0.0000000000,0.0000000000,0.0000000000,0.0000000000,0.0000000000,-0.0091327354,0.0000000000,0.0000000000,0.0000000000,0.0000000000,0.0000000000,0.0000000000,0.0000000000,0.0000000000,0.0000000000,0.0000000000,0.0000000000,-0.0000000000,-0.0000000000,-0.0000000000,-0.0000000000,-0.0000000000,-0.0000000000,0.0000000000,-1136.4156494141,314.0256042480,-0.3403994739,0.0000200272,0.2800555229,0.0201048851,inf,0.0300586224,0.0498728752,0.0599124432,0.0699622631,0.0899729729,0.0498485565,0.0300412178,0.0200896263,0.0300283432,0.0100286007,0.0400376320,0.1599509716,262111
1777394128.9237704277,0.0301519800,0.0300183650,0.1003707126,3.0597525095,0.6718186470,0.0007485850,3.8259999752,3.8269796371,3.8270554543,nan,nan,nan,nan,-0.0059760814,-0.0005514352,0.0020934341,-0.6822991967,-0.0968069881,-1.7247397900,-0.1184157431,0.0982843414,0.1372984648,-0.5346931007,0.9623698914,-0.1156068780,0.0000000000,0.0000000000,0.0000000000,0.0000000000,0.0000000000,-0.0074030184,0.0000000000,0.0000000000,0.0000000000,0.0000000000,0.0000000000,0.0000000000,0.0000000000,0.0000000000,0.0000000000,0.0000000000,0.0000000000,-0.0000000000,-0.0000000000,-0.0000000000,-0.0000000000,-0.0000000000,-0.0000000000,0.0000000000,-1136.4156494141,314.0256042480,-0.3403994739,0.0100584030,0.2900938988,0.0301432610,inf,0.0400969982,0.0599112511,0.0699508190,0.0800006390,0.0000445843,0.0598869324,0.0400795937,0.0301280022,0.0400667191,0.0200669765,0.0000185966,0.1699893475,262111
1777394128.9337837696,0.0301519800,0.0300183650,0.1003707126,3.0597525095,0.6718186470,0.0007485850,3.8259999752,3.8269796371,3.8270554543,nan,nan,nan,nan,-0.0059760814,-0.0005514352,0.0020934341,-0.6822991967,-0.0968069881,-1.7247397900,-0.1184157431,0.0982843414,0.1372984648,-0.5346931007,0.9623698914,-0.1156068780,0.0000000000,0.0000000000,0.0000000000,0.0000000000,0.0000000000,-0.0074030184,0.0000000000,0.0000000000,0.0000000000,0.0000000000,0.0000000000,0.0000000000,0.0000000000,0.0000000000,0.0000000000,0.0000000000,0.0000000000,-0.0000000000,-0.0000000000,-0.0000000000,-0.0000000000,-0.0000000000,-0.0000000000,0.0000000000,-1136.4156494141,314.0256042480,-0.3403994739,0.0200717449,0.3001072407,0.0401566029,inf,0.0501103401,0.0699245930,0.0799641609,0.0000562668,0.0100579262,0.0699002743,0.0000331402,0.0401413441,0.0000157356,0.0300803185,0.0100319386,0.1800026894,262111
1777394128.9436993599,0.0301519800,0.0300183650,0.1003707126,3.0597525095,0.6718186470,0.0007485850,3.8259999752,3.8269796371,3.8270504475,nan,nan,nan,nan,-0.0059760814,-0.0005514352,0.0020934341,-0.6822991967,-0.0968069881,-1.7247397900,-0.1184157431,0.0982843414,0.1372984648,-0.5346931007,0.9623698914,-0.1156068780,0.0000000000,0.0000000000,0.0000000000,0.0000000000,0.0000000000,-0.0074030184,0.0000000000,0.0000000000,0.0000000000,0.0000000000,0.0000000000,0.0000000000,0.0000000000,0.0000000000,0.0000000000,0.0000000000,0.0000000000,-0.0000000000,-0.0000000000,-0.0000000000,-0.0000000000,-0.0000000000,-0.0000000000,0.0000000000,-1136.4156494141,314.0256042480,-0.3403994739,0.0299873352,0.3100228310,0.0000331402,inf,0.0600259304,0.0798401833,0.0898797512,0.0099718571,0.0199735165,0.0798158646,0.0099487305,0.0000145435,0.0099313259,0.0399959087,0.0199475288,0.1899182796,262111
1777394128.9537179470,0.0301519800,0.0300183650,0.1003707126,3.0597525095,0.6718186470,0.0007485850,3.8259999752,3.8269796371,3.8270504475,nan,nan,nan,nan,-0.0059760814,-0.0005514352,0.0020934341,-0.6822991967,-0.0968069881,-1.7247397900,0.3340843916,0.1147555113,-0.0898901075,4.5321805615,0.1649730249,-2.2754902201,0.0000000000,0.0000000000,0.0000000000,0.0000000000,0.0000000000,-0.0074030184,0.0000000000,0.0000000000,0.0000000000,0.0000000000,0.0000000000,0.0000000000,0.0000000000,0.0000000000,0.0000000000,0.0000000000,0.0000000000,-0.0000000000,-0.0000000000,-0.0000000000,-0.0000000000,-0.0000000000,-0.0000000000,0.0000000000,-1136.4156494141,314.0256042480,-0.3403994739,0.0400059223,0.3200414181,0.0100517273,inf,0.0700445175,0.0898587704,0.0000567436,0.0199904442,0.0299921036,0.0898344517,0.0199673176,0.0100331306,0.0199499130,0.0000312328,0.0299661160,0.0000145435,262111
1777394128.9637672901,0.0308260769,0.0300176572,0.1000536904,3.0654559658,0.6278173914,-0.0014344569,3.8259999752,3.8269796371,3.8270504475,nan,nan,nan,nan,-0.0059760814,-0.0005514352,0.0020934341,-0.6132943034,-0.0806182548,-1.7880842686,0.3340843916,0.1147555113,-0.0898901075,4.5321805615,0.1649730249,-2.2754902201,0.0000000000,0.0000000000,0.0000000000,0.0000000000,0.0000000000,-0.0074030184,0.0000000000,0.0000000000,0.0000000000,0.0000000000,0.0000000000,0.0000000000,0.0000000000,0.0000000000,0.0000000000,0.0000000000,0.0000000000,-0.0000000000,-0.0000000000,-0.0000000000,-0.0000000000,-0.0000000000,-0.0000000000,0.0000000000,-1142.3583984375,273.5180358887,0.0000000000,0.0000646114,0.3300907612,0.0201010704,inf,0.0800938606,0.0000300407,0.0101060867,0.0300397873,0.0400414467,0.0000133514,0.0300166607,0.0200824738,0.0299992561,0.0100805759,0.0400154591,0.0100638866,262111
1777394128.9737110138,0.0308260769,0.0300176572,0.1000536904,3.0654559658,0.6278173914,-0.0014344569,3.8259999752,3.8269796371,3.8270504475,nan,nan,nan,nan,-0.0059760814,-0.0005514352,0.0020934341,-0.6132943034,-0.0806182548,-1.7880842686,0.3340843916,0.1147555113,-0.0898901075,4.5321805615,0.1649730249,-2.2754902201,0.0000000000,0.0000000000,0.0000000000,0.0000000000,0.0000000000,-0.0074030184,0.0000000000,0.0000000000,0.0000000000,0.0000000000,0.0000000000,0.0000000000,0.0000000000,0.0000000000,0.0000000000,0.0000000000,0.0000000000,-0.0000000000,-0.0000000000,-0.0000000000,-0.0000000000,-0.0000000000,-0.0000000000,0.0000000000,-1142.3583984375,273.5180358887,0.0000000000,0.0100083351,0.3400344849,0.0300447941,inf,0.0900375843,0.0099737644,0.0200498104,0.0399835110,0.0499851704,0.0099570751,0.0399603844,0.0300261974,0.0399429798,0.0200242996,0.0000195503,0.0200076103,262111
1777394128.9837529659,0.0308260769,0.0300176572,0.1000536904,3.0654559658,0.6278173914,-0.0014344569,3.8259999752,3.8269796371,3.8270504475,nan,nan,nan,nan,-0.0036095532,-0.0013768368,0.0011866221,-0.6132943034,-0.0806182548,-1.7880842686,0.3340843916,0.1147555113,-0.0898901075,4.5321805615,0.1649730249,-2.2754902201,0.0000000000,0.0000000000,0.0000000000,0.0000000000,0.0000000000,-0.0074030184,0.0000000000,0.0000000000,0.0000000000,0.0000000000,0.0000000000,0.0000000000,0.0000000000,0.0000000000,0.0000000000,0.0000000000,0.0000000000,-0.0000000000,-0.0000000000,-0.0000000000,-0.0000000000,-0.0000000000,-0.0000000000,0.0000000000,-1142.3583984375,273.5180358887,0.0000000000,0.0200502872,0.3500764370,0.0400867462,inf,0.0000374317,0.0200157166,0.0300917625,0.0500254631,0.0600271225,0.0199990273,0.0000219345,0.0400681496,0.0000145435,0.0300662518,0.0100615025,0.0300495625,262111
1777394128.9937524796,0.0308260769,0.0300176572,0.1000536904,3.0654559658,0.6278173914,-0.0014344569,3.8259999752,3.8269796371,3.8270473480,nan,nan,nan,nan,-0.0036095532,-0.0013768368,0.0011866221,-0.6132943034,-0.0806182548,-1.7880842686,0.3340843916,0.1147555113,-0.0898901075,4.5321805615,0.1649730249,-2.2754902201,0.0000000000,0.0000000000,0.0000000000,0.0000000000,0.0000000000,-0.0074030184,0.0000000000,0.0000000000,0.0000000000,0.0000000000,0.0000000000,0.0000000000,0.0000000000,0.0000000000,0.0000000000,0.0000000000,0.0000000000,-0.0000000000,-0.0000000000,-0.0000000000,-0.0000000000,-0.0000000000,-0.0000000000,0.0000000000,-1142.3583984375,273.5180358887,0.0000000000,0.0300498009,0.3600759506,0.0000350475,inf,0.0100369453,0.0300152302,0.0400912762,0.0600249767,0.0700266361,0.0299985409,0.0100214481,0.0000185966,0.0100140572,0.0400657654,0.0200610161,0.0400490761,262111
1777394129.0036907196,0.0308260769,0.0300176572,0.1000536904,3.0654559658,0.6278173914,-0.0014344569,3.8259999752,3.8269796371,3.8270473480,nan,nan,nan,nan,-0.0036095532,-0.0013768368,0.0011866221,-0.6132943034,-0.0806182548,-1.7880842686,0.3340843916,0.1147555113,-0.0898901075,4.5321805615,0.1649730249,-2.2754902201,0.0000000000,0.0000000000,0.0000000000,0.0000000000,0.0000000000,-0.0074030184,0.0000000000,0.0000000000,0.0000000000,0.0000000000,0.0000000000,0.0000000000,0.0000000000,0.0000000000,0.0000000000,0.0000000000,0.0000000000,-0.0000000000,-0.0000000000,-0.0000000000,-0.0000000000,-0.0000000000,-0.0000000000,0.0000000000,-1142.3583984375,273.5180358887,0.0000000000,0.0399880409,0.3700141907,0.0099732876,inf,0.0199751854,0.0399534702,0.0500295162,0.0699632168,0.0799648762,0.0399367809,0.0199596882,0.0099568367,0.0199522972,0.0000145435,0.0299992561,0.0499873161,262111
1777394129.0136845112,0.0306452028,0.0300779156,0.1001261324,3.0720113768,0.5842483421,-0.0006913647,3.8259999752,3.8269796371,3.8270473480,nan,nan,nan,nan,-0.0036095532,-0.0013768368,0.0011866221,-0.6132943034,-0.0806182548,-1.7880842686,0.3340843916,0.1147555113,-0.0898901075,4.5321805615,0.1649730249,-2.2754902201,0.0000000000,0.0000000000,0.0000000000,0.0000000000,0.0000000000,-0.0074030184,0.0000000000,0.0000000000,0.0000000000,0.0000000000,0.0000000000,0.0000000000,0.0000000000,0.0000000000,0.0000000000,0.0000000000,0.0000000000,-0.0000000000,-0.0000000000,-0.0000000000,-0.0000000000,-0.0000000000,-0.0000000000,0.0000000000,-1142.3583984375,273.5180358887,0.0000000000,0.0000138283,0.3800079823,0.0199670792,inf,0.0299689770,0.0499472618,0.0600233078,0.0799570084,0.0899586678,0.0499305725,0.0299534798,0.0199506283,0.0299460888,0.0100083351,0.0399930477,0.0599811077,262111
1777394129.0236616135,0.0306452028,0.0300779156,0.1001261324,3.0720113768,0.5842483421,-0.0006913647,3.8259999752,3.8269796371,3.8270473480,nan,nan,nan,nan,-0.0036095532,-0.0013768368,0.0011866221,-0.6132943034,-0.0806182548,-1.7880842686,0.3340843916,0.1147555113,-0.0898901075,4.5321805615,0.1649730249,-2.2754902201,0.0000000000,0.0000000000,0.0000000000,0.0000000000,0.0000000000,-0.0042906422,0.0000000000,0.0000000000,0.0000000000,0.0000000000,0.0000000000,0.0000000000,0.0000000000,0.0000000000,0.0000000000,0.0000000000,0.0000000000,-0.0000000000,-0.0000000000,-0.0000000000,-0.0000000000,-0.0000000000,-0.0000000000,0.0000000000,-1142.3583984375,273.5180358887,0.0000000000,0.0099909306,0.3899850845,0.0299441814,inf,0.0399460793,0.0599243641,0.0700004101,0.0000188351,0.0000119209,0.0599076748,0.0399305820,0.0299277306,0.0399231911,0.0199854374,0.0000076294,0.0699582100,262111
1777394129.0336668491,0.0306452028,0.0300779156,0.1001261324,3.0720113768,0.5842483421,-0.0006913647,3.8259999752,3.8269796371,3.8270473480,nan,nan,nan,nan,-0.0036095532,-0.0013768368,0.0011866221,-0.6132943034,-0.0806182548,-1.7880842686,0.3340843916,0.1147555113,-0.0898901075,4.5321805615,0.1649730249,-2.2754902201,0.0000000000,0.0000000000,0.0000000000,0.0000000000,0.0000000000,-0.0042906422,0.0000000000,0.0000000000,0.0000000000,0.0000000000,0.0000000000,0.0000000000,0.0000000000,0.0000000000,0.0000000000,0.0000000000,0.0000000000,-0.0000000000,-0.0000000000,-0.0000000000,-0.0000000000,-0.0000000000,-0.0000000000,0.0000000000,-1142.3583984375,273.5180358887,0.0000000000,0.0199961662,0.3999903202,0.0399494171,inf,0.0499513149,0.0699295998,0.0800056458,0.0100240707,0.0100171566,0.0699129105,0.0000162125,0.0399329662,0.0000085831,0.0299906731,0.0100128651,0.0799634457,262111
1777394129.0436494350,0.0306452028,0.0300779156,0.1001261324,3.0720113768,0.5842483421,-0.0006913647,3.8259999752,3.8269796371,3.8270444870,nan,nan,nan,nan,-0.0036095532,-0.0013768368,0.0011866221,-0.6132943034,-0.0806182548,-1.7880842686,0.3340843916,0.1147555113,-0.0898901075,4.5321805615,0.1649730249,-2.2754902201,0.0000000000,0.0000000000,0.0000000000,0.0000000000,0.0000000000,-0.0042906422,0.0000000000,0.0000000000,0.0000000000,0.0000000000,0.0000000000,0.0000000000,0.0000000000,0.0000000000,0.0000000000,0.0000000000,0.0000000000,-0.0000000000,-0.0000000000,-0.0000000000,-0.0000000000,-0.0000000000,-0.0000000000,0.0000000000,-1142.3583984375,273.5180358887,0.0000000000,0.0299787521,0.4099729061,0.0000190735,inf,0.0599339008,0.0799121857,0.0899882317,0.0200066566,0.0199997425,0.0798954964,0.0099987984,0.0000107288,0.0099911690,0.0399732590,0.0199954510,0.0899460316,262111
1777394129.0536906719,0.0306452028,0.0300779156,0.1001261324,3.0720113768,0.5842483421,-0.0006913647,3.8259999752,3.8269796371,3.8270444870,nan,nan,nan,nan,-0.0036095532,-0.0013768368,0.0011866221,-0.6132943034,-0.0806182548,-1.7880842686,-0.0698441863,-0.0891643092,-0.1719696224,-4.0390199972,-2.0390640273,-0.8207411409,0.0000000000,0.0000000000,0.0000000000,0.0000000000,0.0000000000,-0.0042906422,0.0000000000,0.0000000000,0.0000000000,0.0000000000,0.0000000000,0.0000000000,0.0000000000,0.0000000000,0.0000000000,0.0000000000,0.0000000000,-0.0000000000,-0.0000000000,-0.0000000000,-0.0000000000,-0.0000000000,-0.0000000000,0.0000000000,-1142.3583984375,273.5180358887,0.0000000000,0.0400199890,0.4200141430,0.0100603104,inf,0.0699751377,0.0899534225,0.0000228882,0.0300478935,0.0300409794,0.0899367332,0.0200400352,0.0100519657,0.0200324059,0.0000116825,0.0300366879,0.0999872684,262111
1777394129.0636782646,0.0306452028,0.0300779156,0.1001261324,3.0720113768,0.5842483421,-0.0006913647,3.8259999752,3.8269796371,3.8270444870,nan,nan,nan,nan,-0.0036095532,-0.0013768368,0.0011866221,-0.6132943034,-0.0806182548,-1.7880842686,-0.0698441863,-0.0891643092,-0.1719696224,-4.0390199972,-2.0390640273,-0.8207411409,0.0000000000,0.0000000000,0.0000000000,0.0000000000,0.0000000000,-0.0042906422,0.0000000000,0.0000000000,0.0000000000,0.0000000000,0.0000000000,0.0000000000,0.0000000000,0.0000000000,0.0000000000,0.0000000000,0.0000000000,-0.0000000000,-0.0000000000,-0.0000000000,-0.0000000000,-0.0000000000,-0.0000000000,0.0000000000,-1142.3583984375,273.5180358887,0.0000000000,0.0500075817,0.4300017357,0.0200479031,inf,0.0799627304,0.0999410152,0.0100104809,0.0400354862,0.0400285721,0.0999243259,0.0300276279,0.0200395584,0.0300199986,0.0099992752,0.0400242805,0.1099748611,262111
1777394129.0737185478,0.0304248445,0.0301373824,0.1002375931,3.0782011973,0.5467089014,-0.0005249717,3.8259999752,3.8269796371,3.8270444870,nan,nan,nan,nan,-0.0036095532,-0.0013768368,0.0011866221,-0.5475270748,-0.0671022236,-1.8346257210,-0.0698441863,-0.0891643092,-0.1719696224,-4.0390199972,-2.0390640273,-0.8207411409,0.0000000000,0.0000000000,0.0000000000,0.0000000000,0.0000000000,-0.0042906422,0.0000000000,0.0000000000,0.0000000000,0.0000000000,0.0000000000,0.0000000000,0.0000000000,0.0000000000,0.0000000000,0.0000000000,0.0000000000,-0.0000000000,-0.0000000000,-0.0000000000,-0.0000000000,-0.0000000000,-0.0000000000,0.0000000000,-1146.9957275391,237.6205749512,0.0000000000,0.0000557899,0.4400420189,0.0300881863,inf,0.0900030136,0.0000305176,0.0200507641,0.0500757694,0.0500688553,0.0000212193,0.0400679111,0.0300798416,0.0400602818,0.0200395584,0.0000133514,0.1200151443,262111
1777394129.0836529732,0.0304248445,0.0301373824,0.1002375931,3.0782011973,0.5467089014,-0.0005249717,3.8259999752,3.8269796371,3.8270444870,nan,nan,nan,nan,-0.0058437875,-0.0013208033,0.0010775628,-0.5475270748,-0.0671022236,-1.8346257210,-0.0698441863,-0.0891643092,-0.1719696224,-4.0390199972,-2.0390640273,-0.8207411409,0.0000000000,0.0000000000,0.0000000000,0.0000000000,0.0000000000,-0.0042906422,0.0000000000,0.0000000000,0.0000000000,0.0000000000,0.0000000000,0.0000000000,0.0000000000,0.0000000000,0.0000000000,0.0000000000,0.0000000000,-0.0000000000,-0.0000000000,-0.0000000000,-0.0000000000,-0.0000000000,-0.0000000000,0.0000000000,-1146.9957275391,237.6205749512,0.0000000000,0.0099902153,0.4499764442,0.0400226116,inf,0.0000216961,0.0099649429,0.0299851894,0.0600101948,0.0600032806,0.0099556446,0.0000135899,0.0400142670,0.0000081062,0.0299739838,0.0099477768,0.1299495697,262111
1777394129.0936250687,0.0304248445,0.0301373824,0.1002375931,3.0782011973,0.5467089014,-0.0005249717,3.8259999752,3.8269796371,3.8270413876,nan,nan,nan,nan,-0.0058437875,-0.0013208033,0.0010775628,-0.5475270748,-0.0671022236,-1.8346257210,-0.0698441863,-0.0891643092,-0.1719696224,-4.0390199972,-2.0390640273,-0.8207411409,0.0000000000,0.0000000000,0.0000000000,0.0000000000,0.0000000000,-0.0042906422,0.0000000000,0.0000000000,0.0000000000,0.0000000000,0.0000000000,0.0000000000,0.0000000000,0.0000000000,0.0000000000,0.0000000000,0.0000000000,-0.0000000000,-0.0000000000,-0.0000000000,-0.0000000000,-0.0000000000,-0.0000000000,0.0000000000,-1146.9957275391,237.6205749512,0.0000000000,0.0199623108,0.4599485397,0.0000131130,inf,0.0099937916,0.0199370384,0.0399572849,0.0699822903,0.0699753761,0.0199277401,0.0099856853,0.0000064373,0.0099802017,0.0399460793,0.0199198723,0.1399216652,262111
1777394129.1036520004,0.0304248445,0.0301373824,0.1002375931,3.0782011973,0.5467089014,-0.0005249717,3.8259999752,3.8269796371,3.8270413876,nan,nan,nan,nan,-0.0058437875,-0.0013208033,0.0010775628,-0.5475270748,-0.0671022236,-1.8346257210,-0.0698441863,-0.0891643092,-0.1719696224,-4.0390199972,-2.0390640273,-0.8207411409,0.0000000000,0.0000000000,0.0000000000,0.0000000000,0.0000000000,-0.0042906422,0.0000000000,0.0000000000,0.0000000000,0.0000000000,0.0000000000,0.0000000000,0.0000000000,0.0000000000,0.0000000000,0.0000000000,0.0000000000,-0.0000000000,-0.0000000000,-0.0000000000,-0.0000000000,-0.0000000000,-0.0000000000,0.0000000000,-1146.9957275391,237.6205749512,0.0000000000,0.0299892426,0.4699754715,0.0100400448,inf,0.0200207233,0.0299639702,0.0499842167,0.0800092220,0.0800023079,0.0299546719,0.0200126171,0.0100333691,0.0200071335,0.0000104904,0.0299468040,0.1499485970,262111
1777394129.1137080193,0.0301364940,0.0302016586,0.1003598720,3.0842704168,0.5065129792,-0.0005403157,3.8259999752,3.8269796371,3.8270413876,nan,nan,nan,nan,-0.0058437875,-0.0013208033,0.0010775628,-0.5475270748,-0.0671022236,-1.8346257210,-0.0698441863,-0.0891643092,-0.1719696224,-4.0390199972,-2.0390640273,-0.8207411409,0.0000000000,0.0000000000,0.0000000000,0.0000000000,0.0000000000,-0.0042906422,0.0000000000,0.0000000000,0.0000000000,0.0000000000,0.0000000000,0.0000000000,0.0000000000,0.0000000000,0.0000000000,0.0000000000,0.0000000000,-0.0000000000,-0.0000000000,-0.0000000000,-0.0000000000,-0.0000000000,-0.0000000000,0.0000000000,-1146.9957275391,237.6205749512,0.0000000000,0.0000340939,0.4800314903,0.0200960636,inf,0.0300767422,0.0400199890,0.0600402355,0.0000131130,0.0900583267,0.0400106907,0.0300686359,0.0200893879,0.0300631523,0.0100665092,0.0400028229,0.1600046158,262111
1777394129.1236705780,0.0301364940,0.0302016586,0.1003598720,3.0842704168,0.5065129792,-0.0005403157,3.8259999752,3.8269796371,3.8270413876,nan,nan,nan,nan,-0.0058437875,-0.0013208033,0.0010775628,-0.5475270748,-0.0671022236,-1.8346257210,-0.0698441863,-0.0891643092,-0.1719696224,-4.0390199972,-2.0390640273,-0.8207411409,0.0000000000,0.0000000000,0.0000000000,0.0000000000,0.0000000000,-0.0014949840,0.0000000000,0.0000000000,0.0000000000,0.0000000000,0.0000000000,0.0000000000,0.0000000000,0.0000000000,0.0000000000,0.0000000000,0.0000000000,-0.0000000000,-0.0000000000,-0.0000000000,-0.0000000000,-0.0000000000,-0.0000000000,0.0000000000,-1146.9957275391,237.6205749512,0.0000000000,0.0099966526,0.4899940491,0.0300586224,inf,0.0400393009,0.0499825478,0.0700027943,0.0099756718,0.0000207424,0.0499732494,0.0400311947,0.0300519466,0.0400257111,0.0200290680,0.0000104904,0.1699671745,262111
1777394129.1337780952,0.0301364940,0.0302016586,0.1003598720,3.0842704168,0.5065129792,-0.0005403157,3.8259999752,3.8269796371,3.8270413876,nan,nan,nan,nan,-0.0058437875,-0.0013208033,0.0010775628,-0.5475270748,-0.0671022236,-1.8346257210,-0.0698441863,-0.0891643092,-0.1719696224,-4.0390199972,-2.0390640273,-0.8207411409,0.0000000000,0.0000000000,0.0000000000,0.0000000000,0.0000000000,-0.0014949840,0.0000000000,0.0000000000,0.0000000000,0.0000000000,0.0000000000,0.0000000000,0.0000000000,0.0000000000,0.0000000000,0.0000000000,0.0000000000,-0.0000000000,-0.0000000000,-0.0000000000,-0.0000000000,-0.0000000000,-0.0000000000,0.0000000000,-1146.9957275391,237.6205749512,0.0000000000,0.0201041698,0.5001015663,0.0401661396,inf,0.0501468182,0.0600900650,0.0801103115,0.0200831890,0.0101282597,0.0600807667,0.0000381470,0.0401594639,0.0000174046,0.0301365852,0.0101180077,0.1800746918,262111
1777394129.1437325478,0.0301364940,0.0302016586,0.1003598720,3.0842704168,0.5065129792,-0.0005403157,3.8259999752,3.8269796371,3.8270385265,nan,nan,nan,nan,-0.0058437875,-0.0013208033,0.0010775628,-0.5475270748,-0.0671022236,-1.8346257210,-0.0698441863,-0.0891643092,-0.1719696224,-4.0390199972,-2.0390640273,-0.8207411409,0.0000000000,0.0000000000,0.0000000000,0.0000000000,0.0000000000,-0.0014949840,0.0000000000,0.0000000000,0.0000000000,0.0000000000,0.0000000000,0.0000000000,0.0000000000,0.0000000000,0.0000000000,0.0000000000,0.0000000000,-0.0000000000,-0.0000000000,-0.0000000000,-0.0000000000,-0.0000000000,-0.0000000000,0.0000000000,-1146.9957275391,237.6205749512,0.0000000000,0.0300586224,0.5100560188,0.0000369549,inf,0.0601012707,0.0700445175,0.0900647640,0.0300376415,0.0200827122,0.0700352192,0.0099925995,0.0000162125,0.0099718571,0.0400910378,0.0200724602,0.1900291443,262111
1777394129.1537578106,0.0301364940,0.0302016586,0.1003598720,3.0842704168,0.5065129792,-0.0005403157,3.8259999752,3.8269796371,3.8270385265,nan,nan,nan,nan,-0.0058437875,-0.0013208033,0.0010775628,-0.5475270748,-0.0671022236,-1.8346257210,-0.0277777482,0.0378190875,0.0375771821,0.4205083813,1.2693630597,2.0946909573,0.0000000000,0.0000000000,0.0000000000,0.0000000000,0.0000000000,-0.0014949840,0.0000000000,0.0000000000,0.0000000000,0.0000000000,0.0000000000,0.0000000000,0.0000000000,0.0000000000,0.0000000000,0.0000000000,0.0000000000,-0.0000000000,-0.0000000000,-0.0000000000,-0.0000000000,-0.0000000000,-0.0000000000,0.0000000000,-1146.9957275391,237.6205749512,0.0000000000,0.0400838852,0.5200812817,0.0100622177,inf,0.0701265335,0.0800697803,0.0000529289,0.0400629044,0.0301079750,0.0800604820,0.0200178623,0.0100414753,0.0199971199,0.0000319481,0.0300977230,0.0000150204,262111
1777394129.1637408733,0.0297874268,0.0302890893,0.1005143002,3.0878129621,0.4722949479,0.0012933447,3.8259999752,3.8269796371,3.8270385265,nan,nan,nan,nan,-0.0058437875,-0.0013208033,0.0010775628,-0.4825564921,-0.0579912364,-1.8722784519,-0.0277777482,0.0378190875,0.0375771821,0.4205083813,1.2693630597,2.0946909573,0.0000000000,0.0000000000,0.0000000000,0.0000000000,0.0000000000,-0.0014949840,0.0000000000,0.0000000000,0.0000000000,0.0000000000,0.0000000000,0.0000000000,0.0000000000,0.0000000000,0.0000000000,0.0000000000,0.0000000000,-0.0000000000,-0.0000000000,-0.0000000000,-0.0000000000,-0.0000000000,-0.0000000000,0.0000000000,-1150.4119873047,208.5074157715,0.0000000000,0.0000576973,0.5300643444,0.0200452805,inf,0.0801095963,0.0000305176,0.0100359917,0.0500459671,0.0400910378,0.0000133514,0.0300009251,0.0200245380,0.0299801826,0.0100150108,0.0400807858,0.0099980831,262111
1777394129.1736845970,0.0297874268,0.0302890893,0.1005143002,3.0878129621,0.4722949479,0.0012933447,3.8259999752,3.8269796371,3.8270385265,nan,nan,nan,nan,-0.0058437875,-0.0013208033,0.0010775628,-0.4825564921,-0.0579912364,-1.8722784519,-0.0277777482,0.0378190875,0.0375771821,0.4205083813,1.2693630597,2.0946909573,0.0000000000,0.0000000000,0.0000000000,0.0000000000,0.0000000000,-0.0014949840,0.0000000000,0.0000000000,0.0000000000,0.0000000000,0.0000000000,0.0000000000,0.0000000000,0.0000000000,0.0000000000,0.0000000000,0.0000000000,-0.0000000000,-0.0000000000,-0.0000000000,-0.0000000000,-0.0000000000,-0.0000000000,0.0000000000,-1150.4119873047,208.5074157715,0.0000000000,0.0100014210,0.5400080681,0.0299890041,inf,0.0900533199,0.0099742413,0.0199797153,0.0599896908,0.0500347614,0.0099570751,0.0399446487,0.0299682617,0.0399239063,0.0199587345,0.0000145435,0.0199418068,262111
1777394129.1837570667,0.0297874268,0.0302890893,0.1005143002,3.0878129621,0.4722949479,0.0012933447,3.8259999752,3.8269796371,3.8270385265,nan,nan,nan,nan,-0.0081805941,-0.0022207110,0.0007388003,-0.4825564921,-0.0579912364,-1.8722784519,-0.0277777482,0.0378190875,0.0375771821,0.4205083813,1.2693630597,2.0946909573,0.0000000000,0.0000000000,0.0000000000,0.0000000000,0.0000000000,-0.0014949840,0.0000000000,0.0000000000,0.0000000000,0.0000000000,0.0000000000,0.0000000000,0.0000000000,0.0000000000,0.0000000000,0.0000000000,0.0000000000,-0.0000000000,-0.0000000000,-0.0000000000,-0.0000000000,-0.0000000000,-0.0000000000,0.0000000000,-1150.4119873047,208.5074157715,0.0000000000,0.0200738907,0.5500805378,0.0400614738,inf,0.0000512600,0.0200467110,0.0300521851,0.0700621605,0.0601072311,0.0200295448,0.0000324249,0.0400407314,0.0000162125,0.0300312042,0.0100870132,0.0300142765,262111
1777394129.1937348843,0.0297874268,0.0302890893,0.1005143002,3.0878129621,0.4722949479,0.0012933447,3.8259999752,3.8269796371,3.8270354271,nan,nan,nan,nan,-0.0081805941,-0.0022207110,0.0007388003,-0.4825564921,-0.0579912364,-1.8722784519,-0.0277777482,0.0378190875,0.0375771821,0.4205083813,1.2693630597,2.0946909573,0.0000000000,0.0000000000,0.0000000000,0.0000000000,0.0000000000,-0.0014949840,0.0000000000,0.0000000000,0.0000000000,0.0000000000,0.0000000000,0.0000000000,0.0000000000,0.0000000000,0.0000000000,0.0000000000,0.0000000000,-0.0000000000,-0.0000000000,-0.0000000000,-0.0000000000,-0.0000000000,-0.0000000000,0.0000000000,-1150.4119873047,208.5074157715,0.0000000000,0.0300517082,0.5600583553,0.0000340939,inf,0.0100290775,0.0300245285,0.0400300026,0.0800399780,0.0700850487,0.0300073624,0.0100102425,0.0000152588,0.0099940300,0.0400090218,0.0200648308,0.0399920940,262111
1777394129.2036943436,0.0297874268,0.0302890893,0.1005143002,3.0878129621,0.4722949479,0.0012933447,3.8259999752,3.8269796371,3.8270354271,nan,nan,nan,nan,-0.0081805941,-0.0022207110,0.0007388003,-0.4825564921,-0.0579912364,-1.8722784519,-0.0277777482,0.0378190875,0.0375771821,0.4205083813,1.2693630597,2.0946909573,0.0000000000,0.0000000000,0.0000000000,0.0000000000,0.0000000000,-0.0014949840,0.0000000000,0.0000000000,0.0000000000,0.0000000000,0.0000000000,0.0000000000,0.0000000000,0.0000000000,0.0000000000,0.0000000000,0.0000000000,-0.0000000000,-0.0000000000,-0.0000000000,-0.0000000000,-0.0000000000,-0.0000000000,0.0000000000,-1150.4119873047,208.5074157715,0.0000000000,0.0400111675,0.5700178146,0.0099935532,inf,0.0199885368,0.0399839878,0.0499894619,0.0000300407,0.0800445080,0.0399668217,0.0199697018,0.0099747181,0.0199534893,0.0000123978,0.0300242901,0.0499515533,262111
1777394129.2136504650,0.0293924119,0.0304028373,0.1006860137,3.0935306779,0.4381406623,0.0006417518,3.8259999752,3.8269796371,3.8270354271,nan,nan,nan,nan,-0.0081805941,-0.0022207110,0.0007388003,-0.4825564921,-0.0579912364,-1.8722784519,-0.0277777482,0.0378190875,0.0375771821,0.4205083813,1.2693630597,2.0946909573,0.0000000000,0.0000000000,0.0000000000,0.0000000000,0.0000000000,-0.0014949840,0.0000000000,0.0000000000,0.0000000000,0.0000000000,0.0000000000,0.0000000000,0.0000000000,0.0000000000,0.0000000000,0.0000000000,0.0000000000,-0.0000000000,-0.0000000000,-0.0000000000,-0.0000000000,-0.0000000000,-0.0000000000,0.0000000000,-1150.4119873047,208.5074157715,0.0000000000,0.0000131130,0.5799739361,0.0199496746,inf,0.0299446583,0.0499401093,0.0599455833,0.0099861622,0.0900006294,0.0499229431,0.0299258232,0.0199308395,0.0299096107,0.0099685192,0.0399804115,0.0599076748,262111
1777394129.2237012386,0.0293924119,0.0304028373,0.1006860137,3.0935306779,0.4381406623,0.0006417518,3.8259999752,3.8269796371,3.8270354271,nan,nan,nan,nan,-0.0081805941,-0.0022207110,0.0007388003,-0.4825564921,-0.0579912364,-1.8722784519,-0.0277777482,0.0378190875,0.0375771821,0.4205083813,1.2693630597,2.0946909573,0.0000000000,0.0000000000,0.0000000000,0.0000000000,0.0000000000,-0.0051001636,0.0000000000,0.0000000000,0.0000000000,0.0000000000,0.0000000000,0.0000000000,0.0000000000,0.0000000000,0.0000000000,0.0000000000,0.0000000000,-0.0000000000,-0.0000000000,-0.0000000000,-0.0000000000,-0.0000000000,-0.0000000000,0.0000000000,-1150.4119873047,208.5074157715,0.0000000000,0.0100638866,0.5900247097,0.0300004482,inf,0.0399954319,0.0599908829,0.0699963570,0.0200369358,0.0000391006,0.0599737167,0.0399765968,0.0299816132,0.0000236034,0.0200192928,0.0000112057,0.0699584484,262111
1777394129.2337074280,0.0293924119,0.0304028373,0.1006860137,3.0935306779,0.4381406623,0.0006417518,3.8259999752,3.8269796371,3.8270354271,nan,nan,nan,nan,-0.0081805941,-0.0022207110,0.0007388003,-0.4825564921,-0.0579912364,-1.8722784519,-0.0277777482,0.0378190875,0.0375771821,0.4205083813,1.2693630597,2.0946909573,0.0000000000,0.0000000000,0.0000000000,0.0000000000,0.0000000000,-0.0051001636,0.0000000000,0.0000000000,0.0000000000,0.0000000000,0.0000000000,0.0000000000,0.0000000000,0.0000000000,0.0000000000,0.0000000000,0.0000000000,-0.0000000000,-0.0000000000,-0.0000000000,-0.0000000000,-0.0000000000,-0.0000000000,0.0000000000,-1150.4119873047,208.5074157715,0.0000000000,0.0200700760,0.6000308990,0.0400066376,inf,0.0500016212,0.0699970722,0.0800025463,0.0300431252,0.0100452900,0.0699799061,0.0000162125,0.0399878025,0.0100297928,0.0300254822,0.0100173950,0.0799646378,262111
1777394129.2437970638,0.0293924119,0.0304028373,0.1006860137,3.0935306779,0.4381406623,0.0006417518,3.8259999752,3.8269796371,3.8270325661,nan,nan,nan,nan,-0.0081805941,-0.0022207110,0.0007388003,-0.4825564921,-0.0579912364,-1.8722784519,-0.0277777482,0.0378190875,0.0375771821,0.4205083813,1.2693630597,2.0946909573,0.0000000000,0.0000000000,0.0000000000,0.0000000000,0.0000000000,-0.0051001636,0.0000000000,0.0000000000,0.0000000000,0.0000000000,0.0000000000,0.0000000000,0.0000000000,0.0000000000,0.0000000000,0.0000000000,0.0000000000,-0.0000000000,-0.0000000000,-0.0000000000,-0.0000000000,-0.0000000000,-0.0000000000,0.0000000000,-1150.4119873047,208.5074157715,0.0000000000,0.0301597118,0.6101205349,0.0000426769,inf,0.0600912571,0.0800867081,0.0900921822,0.0401327610,0.0201349258,0.0800695419,0.0101058483,0.0000188351,0.0201194286,0.0401151180,0.0201070309,0.0900542736,262111
1777394129.2538037300,0.0293924119,0.0304028373,0.1006860137,3.0935306779,0.4381406623,0.0006417518,3.8259999752,3.8269796371,3.8270325661,nan,nan,nan,nan,-0.0081805941,-0.0022207110,0.0007388003,-0.4825564921,-0.0579912364,-1.8722784519,-0.0754741952,0.2300322652,0.1535823345,-0.4766819365,1.9209931877,1.1593643594,0.0000000000,0.0000000000,0.0000000000,0.0000000000,0.0000000000,-0.0051001636,0.0000000000,0.0000000000,0.0000000000,0.0000000000,0.0000000000,0.0000000000,0.0000000000,0.0000000000,0.0000000000,0.0000000000,0.0000000000,-0.0000000000,-0.0000000000,-0.0000000000,-0.0000000000,-0.0000000000,-0.0000000000,0.0000000000,-1150.4119873047,208.5074157715,0.0000000000,0.0401663780,0.6201272011,0.0100493431,inf,0.0700979233,0.0900933743,0.0000395775,0.0501394272,0.0301415920,0.0900762081,0.0201125145,0.0100255013,0.0301260948,0.0000169277,0.0301136971,0.1000609398,262111
1777394129.2637953758,0.0293924119,0.0304028373,0.1006860137,3.0935306779,0.4381406623,0.0006417518,3.8259999752,3.8269796371,3.8270325661,nan,nan,nan,nan,-0.0081805941,-0.0022207110,0.0007388003,-0.4825564921,-0.0579912364,-1.8722784519,-0.0754741952,0.2300322652,0.1535823345,-0.4766819365,1.9209931877,1.1593643594,0.0000000000,0.0000000000,0.0000000000,0.0000000000,0.0000000000,-0.0051001636,0.0000000000,0.0000000000,0.0000000000,0.0000000000,0.0000000000,0.0000000000,0.0000000000,0.0000000000,0.0000000000,0.0000000000,0.0000000000,-0.0000000000,-0.0000000000,-0.0000000000,-0.0000000000,-0.0000000000,-0.0000000000,0.0000000000,-1153.4586181641,180.6161041260,0.0000000000,0.0501580238,0.6301188469,0.0200409889,inf,0.0800895691,0.1000850201,0.0100312233,0.0601310730,0.0401332378,0.0000212193,0.0301041603,0.0200171471,0.0401177406,0.0100085735,0.0401053429,0.1100525856,262111
1777394129.2738423347,0.0289459229,0.0305430740,0.1008979231,3.0961627082,0.4097731499,-0.0009599005,3.8259999752,3.8269796371,3.8270325661,nan,nan,nan,nan,-0.0081805941,-0.0022207110,0.0007388003,-0.4268406928,-0.0484514609,-1.9021955729,-0.0754741952,0.2300322652,0.1535823345,-0.4766819365,1.9209931877,1.1593643594,0.0000000000,0.0000000000,0.0000000000,0.0000000000,0.0000000000,-0.0051001636,0.0000000000,0.0000000000,0.0000000000,0.0000000000,0.0000000000,0.0000000000,0.0000000000,0.0000000000,0.0000000000,0.0000000000,0.0000000000,-0.0000000000,-0.0000000000,-0.0000000000,-0.0000000000,-0.0000000000,-0.0000000000,0.0000000000,-1153.4586181641,180.6161041260,0.0000000000,0.0000784397,0.6401658058,0.0300879478,inf,0.0901365280,0.0000388622,0.0200781822,0.0701780319,0.0501801968,0.0100681782,0.0401511192,0.0300641060,0.0501646996,0.0200555325,0.0000176430,0.1200995445,262111
1777394129.2837445736,0.0289459229,0.0305430740,0.1008979231,3.0961627082,0.4097731499,-0.0009599005,3.8259999752,3.8269796371,3.8270325661,nan,nan,nan,nan,-0.0103596151,-0.0029602177,0.0001148797,-0.4268406928,-0.0484514609,-1.9021955729,-0.0754741952,0.2300322652,0.1535823345,-0.4766819365,1.9209931877,1.1593643594,0.0000000000,0.0000000000,0.0000000000,0.0000000000,0.0000000000,-0.0051001636,0.0000000000,0.0000000000,0.0000000000,0.0000000000,0.0000000000,0.0000000000,0.0000000000,0.0000000000,0.0000000000,0.0000000000,0.0000000000,-0.0000000000,-0.0000000000,-0.0000000000,-0.0000000000,-0.0000000000,-0.0000000000,0.0000000000,-1153.4586181641,180.6161041260,0.0000000000,0.0099806786,0.6500680447,0.0399901867,inf,0.0000507832,0.0099411011,0.0299804211,0.0800802708,0.0600824356,0.0199704170,0.0000314713,0.0399663448,0.0000145435,0.0299577713,0.0099198818,0.1300017834,262111
1777394129.2939307690,0.0289459229,0.0305430740,0.1008979231,3.0961627082,0.4097731499,-0.0009599005,3.8259999752,3.8269796371,3.8270294666,nan,nan,nan,nan,-0.0103596151,-0.0029602177,0.0001148797,-0.4268406928,-0.0484514609,-1.9021955729,-0.0754741952,0.2300322652,0.1535823345,-0.4766819365,1.9209931877,1.1593643594,0.0000000000,0.0000000000,0.0000000000,0.0000000000,0.0000000000,-0.0051001636,0.0000000000,0.0000000000,0.0000000000,0.0000000000,0.0000000000,0.0000000000,0.0000000000,0.0000000000,0.0000000000,0.0000000000,0.0000000000,-0.0000000000,-0.0000000000,-0.0000000000,-0.0000000000,-0.0000000000,-0.0000000000,0.0000000000,-1153.4586181641,180.6161041260,0.0000000000,0.0201668739,0.6602542400,0.0001063347,inf,0.0102369785,0.0201272964,0.0401666164,0.0000317097,0.0702686310,0.0301566124,0.0102176666,0.0000226498,0.0102007389,0.0401439667,0.0201060772,0.1401879787,262111
1777394129.3037424088,0.0289459229,0.0305430740,0.1008979231,3.0961627082,0.4097731499,-0.0009599005,3.8259999752,3.8269796371,3.8270294666,nan,nan,nan,nan,-0.0103596151,-0.0029602177,0.0001148797,-0.4268406928,-0.0484514609,-1.9021955729,-0.0754741952,0.2300322652,0.1535823345,-0.4766819365,1.9209931877,1.1593643594,0.0000000000,0.0000000000,0.0000000000,0.0000000000,0.0000000000,-0.0051001636,0.0000000000,0.0000000000,0.0000000000,0.0000000000,0.0000000000,0.0000000000,0.0000000000,0.0000000000,0.0000000000,0.0000000000,0.0000000000,-0.0000000000,-0.0000000000,-0.0000000000,-0.0000000000,-0.0000000000,-0.0000000000,0.0000000000,-1153.4586181641,180.6161041260,0.0000000000,0.0299785137,0.6700658798,0.0099179745,inf,0.0200486183,0.0299389362,0.0499782562,0.0098433495,0.0800802708,0.0399682522,0.0200293064,0.0098342896,0.0200123787,0.0000269413,0.0299177170,0.1499996185,262111
1777394129.3137841225,0.0284548812,0.0306843594,0.1011257991,3.0993676217,0.3815541953,0.0003019698,3.8259999752,3.8269796371,3.8270294666,nan,nan,nan,nan,-0.0103596151,-0.0029602177,0.0001148797,-0.4268406928,-0.0484514609,-1.9021955729,-0.0754741952,0.2300322652,0.1535823345,-0.4766819365,1.9209931877,1.1593643594,0.0000000000,0.0000000000,0.0000000000,0.0000000000,0.0000000000,-0.0051001636,0.0000000000,0.0000000000,0.0000000000,0.0000000000,0.0000000000,0.0000000000,0.0000000000,0.0000000000,0.0000000000,0.0000000000,0.0000000000,-0.0000000000,-0.0000000000,-0.0000000000,-0.0000000000,-0.0000000000,-0.0000000000,0.0000000000,-1153.4586181641,180.6161041260,0.0000000000,0.0000247955,0.6801075935,0.0199596882,inf,0.0300903320,0.0399806499,0.0600199699,0.0198850632,0.0901219845,0.0500099659,0.0300710201,0.0198760033,0.0300540924,0.0100686550,0.0399594307,0.1600413322,262111
1777394129.3237311840,0.0284548812,0.0306843594,0.1011257991,3.0993676217,0.3815541953,0.0003019698,3.8259999752,3.8269796371,3.8270294666,nan,nan,nan,nan,-0.0103596151,-0.0029602177,0.0001148797,-0.4268406928,-0.0484514609,-1.9021955729,-0.0754741952,0.2300322652,0.1535823345,-0.4766819365,1.9209931877,1.1593643594,0.0000000000,0.0000000000,0.0000000000,0.0000000000,0.0000000000,-0.0045413100,0.0000000000,0.0000000000,0.0000000000,0.0000000000,0.0000000000,0.0000000000,0.0000000000,0.0000000000,0.0000000000,0.0000000000,0.0000000000,-0.0000000000,-0.0000000000,-0.0000000000,-0.0000000000,-0.0000000000,-0.0000000000,0.0000000000,-1153.4586181641,180.6161041260,0.0000000000,0.0099718571,0.6900546551,0.0299067497,inf,0.0400373936,0.0499277115,0.0699670315,0.0298321247,0.0000324249,0.0599570274,0.0400180817,0.0298230648,0.0400011539,0.0200157166,0.0000174046,0.1699883938,262111
1777394129.3337547779,0.0284548812,0.0306843594,0.1011257991,3.0993676217,0.3815541953,0.0003019698,3.8259999752,3.8269796371,3.8270294666,nan,nan,nan,nan,-0.0103596151,-0.0029602177,0.0001148797,-0.4268406928,-0.0484514609,-1.9021955729,-0.0754741952,0.2300322652,0.1535823345,-0.4766819365,1.9209931877,1.1593643594,0.0000000000,0.0000000000,0.0000000000,0.0000000000,0.0000000000,-0.0045413100,0.0000000000,0.0000000000,0.0000000000,0.0000000000,0.0000000000,0.0000000000,0.0000000000,0.0000000000,0.0000000000,0.0000000000,0.0000000000,-0.0000000000,-0.0000000000,-0.0000000000,-0.0000000000,-0.0000000000,-0.0000000000,0.0000000000,-1153.4586181641,180.6161041260,0.0000000000,0.0199954510,0.7000782490,0.0399303436,inf,0.0500609875,0.0599513054,0.0799906254,0.0398557186,0.0100560188,0.0699806213,0.0000348091,0.0398466587,0.0000183582,0.0300393105,0.0100409985,0.1800119877,262111
1777394129.3437194824,0.0284548812,0.0306843594,0.1011257991,3.0993676217,0.3815541953,0.0003019698,3.8259999752,3.8269796371,3.8270266056,nan,nan,nan,nan,-0.0103596151,-0.0029602177,0.0001148797,-0.4268406928,-0.0484514609,-1.9021955729,-0.0754741952,0.2300322652,0.1535823345,-0.4766819365,1.9209931877,1.1593643594,0.0000000000,0.0000000000,0.0000000000,0.0000000000,0.0000000000,-0.0045413100,0.0000000000,0.0000000000,0.0000000000,0.0000000000,0.0000000000,0.0000000000,0.0000000000,0.0000000000,0.0000000000,0.0000000000,0.0000000000,-0.0000000000,-0.0000000000,-0.0000000000,-0.0000000000,-0.0000000000,-0.0000000000,0.0000000000,-1153.4586181641,180.6161041260,0.0000000000,0.0299601555,0.7100429535,0.0000271797,inf,0.0600256920,0.0699160099,0.0899553299,0.0498204231,0.0200207233,0.0799453259,0.0099995136,0.0000145435,0.0099830627,0.0400040150,0.0200057030,0.1899766922,262111
1777394129.3537347317,0.0284548812,0.0306843594,0.1011257991,3.0993676217,0.3815541953,0.0003019698,3.8259999752,3.8269796371,3.8270266056,nan,nan,nan,nan,-0.0103596151,-0.0029602177,0.0001148797,-0.4268406928,-0.0484514609,-1.9021955729,0.0430229791,0.2555155158,-0.1048365384,1.1857701143,0.2550041990,-2.5859298207,0.0000000000,0.0000000000,0.0000000000,0.0000000000,0.0000000000,-0.0045413100,0.0000000000,0.0000000000,0.0000000000,0.0000000000,0.0000000000,0.0000000000,0.0000000000,0.0000000000,0.0000000000,0.0000000000,0.0000000000,-0.0000000000,-0.0000000000,-0.0000000000,-0.0000000000,-0.0000000000,-0.0000000000,0.0000000000,-1153.4586181641,180.6161041260,0.0000000000,0.0399754047,0.7200582027,0.0100424290,inf,0.0700409412,0.0799312592,0.0000379086,0.0598356724,0.0300359726,0.0899605751,0.0200147629,0.0100297928,0.0199983120,0.0000247955,0.0300209522,0.0000147820,262111
1777394129.3637304306,0.0308874603,0.0300296675,0.1010538414,3.1019728044,0.3533539161,-0.0014508809,3.8259999752,3.8269796371,3.8270266056,nan,nan,nan,nan,-0.0103596151,-0.0029602177,0.0001148797,-0.3773153424,-0.0424941294,-1.9266177416,0.0430229791,0.2555155158,-0.1048365384,1.1857701143,0.2550041990,-2.5859298207,0.0000000000,0.0000000000,0.0000000000,0.0000000000,0.0000000000,-0.0045413100,0.0000000000,0.0000000000,0.0000000000,0.0000000000,0.0000000000,0.0000000000,0.0000000000,0.0000000000,0.0000000000,0.0000000000,0.0000000000,-0.0000000000,-0.0000000000,-0.0000000000,-0.0000000000,-0.0000000000,-0.0000000000,0.0000000000,-1155.9907226562,156.3572235107,0.0000000000,0.0000443459,0.7300539017,0.0200381279,inf,0.0800366402,0.0000231266,0.0100336075,0.0698313713,0.0400316715,0.0000131130,0.0300104618,0.0200254917,0.0299940109,0.0100204945,0.0400166512,0.0100104809,262111
1777394129.3736987114,0.0308874603,0.0300296675,0.1010538414,3.1019728044,0.3533539161,-0.0014508809,3.8259999752,3.8269796371,3.8270266056,nan,nan,nan,nan,-0.0103596151,-0.0029602177,0.0001148797,-0.3773153424,-0.0424941294,-1.9266177416,0.0430229791,0.2555155158,-0.1048365384,1.1857701143,0.2550041990,-2.5859298207,0.0000000000,0.0000000000,0.0000000000,0.0000000000,0.0000000000,-0.0045413100,0.0000000000,0.0000000000,0.0000000000,0.0000000000,0.0000000000,0.0000000000,0.0000000000,0.0000000000,0.0000000000,0.0000000000,0.0000000000,-0.0000000000,-0.0000000000,-0.0000000000,-0.0000000000,-0.0000000000,-0.0000000000,0.0000000000,-1155.9907226562,156.3572235107,0.0000000000,0.0100126266,0.7400221825,0.0300064087,inf,0.0900049210,0.0099914074,0.0200018883,0.0797996521,0.0499999523,0.0099813938,0.0399787426,0.0299937725,0.0399622917,0.0199887753,0.0000181198,0.0199787617,262111
1777394129.3837702274,0.0308874603,0.0300296675,0.1010538414,3.1019728044,0.3533539161,-0.0014508809,3.8259999752,3.8269796371,3.8270266056,nan,nan,nan,nan,-0.0042633591,-0.0010125231,-0.0033472078,-0.3773153424,-0.0424941294,-1.9266177416,0.0430229791,0.2555155158,-0.1048365384,1.1857701143,0.2550041990,-2.5859298207,0.0000000000,0.0000000000,0.0000000000,0.0000000000,0.0000000000,-0.0045413100,0.0000000000,0.0000000000,0.0000000000,0.0000000000,0.0000000000,0.0000000000,0.0000000000,0.0000000000,0.0000000000,0.0000000000,0.0000000000,-0.0000000000,-0.0000000000,-0.0000000000,-0.0000000000,-0.0000000000,-0.0000000000,0.0000000000,-1155.9907226562,156.3572235107,0.0000000000,0.0200841427,0.7500936985,0.0400779247,inf,0.0000402927,0.0200629234,0.0300734043,0.0000295639,0.0600714684,0.0200529099,0.0000221729,0.0400652885,0.0000143051,0.0300602913,0.0100896358,0.0300502777,262111
1777394129.3937258720,0.0308874603,0.0300296675,0.1010538414,3.1019728044,0.3533539161,-0.0014508809,3.8259999752,3.8269796371,3.8270235062,nan,nan,nan,nan,-0.0042633591,-0.0010125231,-0.0033472078,-0.3773153424,-0.0424941294,-1.9266177416,0.0430229791,0.2555155158,-0.1048365384,1.1857701143,0.2550041990,-2.5859298207,0.0000000000,0.0000000000,0.0000000000,0.0000000000,0.0000000000,-0.0045413100,0.0000000000,0.0000000000,0.0000000000,0.0000000000,0.0000000000,0.0000000000,0.0000000000,0.0000000000,0.0000000000,0.0000000000,0.0000000000,-0.0000000000,-0.0000000000,-0.0000000000,-0.0000000000,-0.0000000000,-0.0000000000,0.0000000000,-1155.9907226562,156.3572235107,0.0000000000,0.0300397873,0.7600493431,0.0000393391,inf,0.0099959373,0.0300185680,0.0400290489,0.0099852085,0.0700271130,0.0300085545,0.0099778175,0.0000200272,0.0099699497,0.0400159359,0.0200452805,0.0400059223,262111
1777394129.4036297798,0.0308874603,0.0300296675,0.1010538414,3.1019728044,0.3533539161,-0.0014508809,3.8259999752,3.8269796371,3.8270235062,nan,nan,nan,nan,-0.0042633591,-0.0010125231,-0.0033472078,-0.3773153424,-0.0424941294,-1.9266177416,0.0430229791,0.2555155158,-0.1048365384,1.1857701143,0.2550041990,-2.5859298207,0.0000000000,0.0000000000,0.0000000000,0.0000000000,0.0000000000,-0.0045413100,0.0000000000,0.0000000000,0.0000000000,0.0000000000,0.0000000000,0.0000000000,0.0000000000,0.0000000000,0.0000000000,0.0000000000,0.0000000000,-0.0000000000,-0.0000000000,-0.0000000000,-0.0000000000,-0.0000000000,-0.0000000000,0.0000000000,-1155.9907226562,156.3572235107,0.0000000000,0.0399436951,0.7699532509,0.0099432468,inf,0.0198998451,0.0399224758,0.0499329567,0.0198891163,0.0799310207,0.0399124622,0.0198817253,0.0099239349,0.0198738575,0.0000123978,0.0299491882,0.0499098301,262111
1777394129.4136230946,0.0307397526,0.0300670452,0.1012982503,3.1050504911,0.3280859800,-0.0004381763,3.8259999752,3.8269796371,3.8270235062,nan,nan,nan,nan,-0.0042633591,-0.0010125231,-0.0033472078,-0.3773153424,-0.0424941294,-1.9266177416,0.0430229791,0.2555155158,-0.1048365384,1.1857701143,0.2550041990,-2.5859298207,0.0000000000,0.0000000000,0.0000000000,0.0000000000,0.0000000000,-0.0045413100,0.0000000000,0.0000000000,0.0000000000,0.0000000000,0.0000000000,0.0000000000,0.0000000000,0.0000000000,0.0000000000,0.0000000000,0.0000000000,-0.0000000000,-0.0000000000,-0.0000000000,-0.0000000000,-0.0000000000,-0.0000000000,0.0000000000,-1155.9907226562,156.3572235107,0.0000000000,0.0000107288,0.7799465656,0.0199365616,inf,0.0298931599,0.0499157906,0.0599262714,0.0298824310,0.0899243355,0.0499057770,0.0298750401,0.0199172497,0.0298671722,0.0100057125,0.0399425030,0.0599031448,262111
1777394129.4236581326,0.0307397526,0.0300670452,0.1012982503,3.1050504911,0.3280859800,-0.0004381763,3.8259999752,3.8269796371,3.8270235062,nan,nan,nan,nan,-0.0042633591,-0.0010125231,-0.0033472078,-0.3773153424,-0.0424941294,-1.9266177416,0.0430229791,0.2555155158,-0.1048365384,1.1857701143,0.2550041990,-2.5859298207,0.0000000000,0.0000000000,0.0000000000,0.0000000000,0.0000000000,-0.0026065265,0.0000000000,0.0000000000,0.0000000000,0.0000000000,0.0000000000,0.0000000000,0.0000000000,0.0000000000,0.0000000000,0.0000000000,0.0000000000,-0.0000000000,-0.0000000000,-0.0000000000,-0.0000000000,-0.0000000000,-0.0000000000,0.0000000000,-1155.9907226562,156.3572235107,0.0000000000,0.0100457668,0.7899816036,0.0299715996,inf,0.0399281979,0.0599508286,0.0699613094,0.0399174690,0.0000197887,0.0599408150,0.0399100780,0.0299522877,0.0399022102,0.0200407505,0.0000107288,0.0699381828,262111
1777394129.4336819649,0.0307397526,0.0300670452,0.1012982503,3.1050504911,0.3280859800,-0.0004381763,3.8259999752,3.8269796371,3.8270235062,nan,nan,nan,nan,-0.0042633591,-0.0010125231,-0.0033472078,-0.3773153424,-0.0424941294,-1.9266177416,0.0430229791,0.2555155158,-0.1048365384,1.1857701143,0.2550041990,-2.5859298207,0.0000000000,0.0000000000,0.0000000000,0.0000000000,0.0000000000,-0.0026065265,0.0000000000,0.0000000000,0.0000000000,0.0000000000,0.0000000000,0.0000000000,0.0000000000,0.0000000000,0.0000000000,0.0000000000,0.0000000000,-0.0000000000,-0.0000000000,-0.0000000000,-0.0000000000,-0.0000000000,-0.0000000000,0.0000000000,-1155.9907226562,156.3572235107,0.0000000000,0.0200695992,0.8000054359,0.0399954319,inf,0.0499520302,0.0699746609,0.0799851418,0.0499413013,0.0100436211,0.0699646473,0.0000207424,0.0399761200,0.0000107288,0.0300645828,0.0100345612,0.0799620152,262111
1777394129.4437062740,0.0307397526,0.0300670452,0.1012982503,3.1050504911,0.3280859800,-0.0004381763,3.8259999752,3.8269796371,3.8270206451,nan,nan,nan,nan,-0.0042633591,-0.0010125231,-0.0033472078,-0.3773153424,-0.0424941294,-1.9266177416,0.0430229791,0.2555155158,-0.1048365384,1.1857701143,0.2550041990,-2.5859298207,0.0000000000,0.0000000000,0.0000000000,0.0000000000,0.0000000000,-0.0026065265,0.0000000000,0.0000000000,0.0000000000,0.0000000000,0.0000000000,0.0000000000,0.0000000000,0.0000000000,0.0000000000,0.0000000000,0.0000000000,-0.0000000000,-0.0000000000,-0.0000000000,-0.0000000000,-0.0000000000,-0.0000000000,0.0000000000,-1155.9907226562,156.3572235107,0.0000000000,0.0300939083,0.8100297451,0.0000259876,inf,0.0599763393,0.0799989700,0.0900094509,0.0599656105,0.0200679302,0.0799889565,0.0100450516,0.0000138283,0.0100350380,0.0400888920,0.0200588703,0.0899863243,262111
1777394129.4536807537,0.0307397526,0.0300670452,0.1012982503,3.1050504911,0.3280859800,-0.0004381763,3.8259999752,3.8269796371,3.8270206451,nan,nan,nan,nan,-0.0042633591,-0.0010125231,-0.0033472078,-0.3773153424,-0.0424941294,-1.9266177416,0.0430229791,0.2555155158,-0.1048365384,1.1857701143,0.2550041990,-2.5859298207,0.0000000000,0.0000000000,0.0000000000,0.0000000000,0.0000000000,-0.0026065265,0.0000000000,0.0000000000,0.0000000000,0.0000000000,0.0000000000,0.0000000000,0.0000000000,0.0000000000,0.0000000000,0.0000000000,0.0000000000,-0.0000000000,-0.0000000000,-0.0000000000,-0.0000000000,-0.0000000000,-0.0000000000,0.0000000000,-1155.9907226562,156.3572235107,0.0000000000,0.0400683880,0.8200042248,0.0100004673,inf,0.0699508190,0.0899734497,0.0999839306,0.0699400902,0.0300424099,0.0899634361,0.0200195312,0.0099883080,0.0200095177,0.0000162125,0.0300333500,0.0999608040,262111
1777394129.4637451172,0.0307397526,0.0300670452,0.1012982503,3.1050504911,0.3280859800,-0.0004381763,3.8259999752,3.8269796371,3.8270206451,nan,nan,nan,nan,-0.0042633591,-0.0010125231,-0.0033472078,-0.3340642154,-0.0386565663,-1.9423201084,-0.1729323417,0.0986903831,0.2441888899,-1.9628321540,-1.4253939745,3.1723151385,0.0000000000,0.0000000000,0.0000000000,0.0000000000,0.0000000000,-0.0026065265,0.0000000000,0.0000000000,0.0000000000,0.0000000000,0.0000000000,0.0000000000,0.0000000000,0.0000000000,0.0000000000,0.0000000000,0.0000000000,-0.0000000000,-0.0000000000,-0.0000000000,-0.0000000000,-0.0000000000,-0.0000000000,0.0000000000,-1158.1158447266,135.2898406982,0.0000000000,0.0501327515,0.8300685883,0.0200648308,inf,0.0800151825,0.0000400543,0.0000259876,0.0800044537,0.0401067734,0.0000162125,0.0300838947,0.0200526714,0.0300738811,0.0100805759,0.0400977135,0.1100251675,262111
1777394129.4737641811,0.0305445325,0.0301089026,0.1015790105,3.1080558748,0.3056681403,0.0004348190,3.8259999752,3.8269796371,3.8270206451,nan,nan,nan,nan,-0.0042633591,-0.0010125231,-0.0033472078,-0.3340642154,-0.0386565663,-1.9423201084,-0.1729323417,0.0986903831,0.2441888899,-1.9628321540,-1.4253939745,3.1723151385,0.0000000000,0.0000000000,0.0000000000,0.0000000000,0.0000000000,-0.0026065265,0.0000000000,0.0000000000,0.0000000000,0.0000000000,0.0000000000,0.0000000000,0.0000000000,0.0000000000,0.0000000000,0.0000000000,0.0000000000,-0.0000000000,-0.0000000000,-0.0000000000,-0.0000000000,-0.0000000000,-0.0000000000,0.0000000000,-1158.1158447266,135.2898406982,0.0000000000,0.0000698566,0.8400876522,0.0300838947,inf,0.0900342464,0.0100591183,0.0100450516,0.0000348091,0.0501258373,0.0100352764,0.0401029587,0.0300717354,0.0400929451,0.0200996399,0.0000188351,0.1200442314,262111
