t_sec,pose_x,pose_y,pose_z,pose_roll,pose_pitch,pose_yaw,status_battery_voltage,raw_battery_voltage,filt_battery_voltage,cmd_x,cmd_y,cmd_z,cmd_yaw,est_vx,est_vy,est_vz,est_ax,est_ay,est_az,gyro_x,gyro_y,gyro_z,angAcc_x,angAcc_y,angAcc_z,velDes_vx,velDes_vy,velDes_vz,attDes_roll,attDes_pitch,attDes_yaw,motor_f1,motor_f2,motor_f3,motor_f4,motor_f1_scaled,motor_f2_scaled,motor_f3_scaled,motor_f4_scaled,bodyInFx,bodyInFy,bodyInFz,droneWorldFx,droneWorldFy,droneWorldFz,droneWorldFx_scaled,droneWorldFy_scaled,droneWorldFz_scaled,zero_bias_count,rateDes_roll,rateDes_pitch,rateDes_yaw,age_pose,age_status,age_cf_voltage,age_cmd_position,age_stateEstimate_velocity,age_stateEstimate_acc,age_gyro_feedback,age_vel_des,age_att_des,age_rate_des,age_cf_motor_force,age_cf_motor_force_scaled,age_cf_body_input_force,age_cf_world_force,age_cf_F_input_scaled,age_cf_zero_bias_dbg,validity_bitmask
1777399850.0835618973,nan,nan,nan,nan,nan,nan,nan,nan,nan,nan,nan,nan,nan,nan,nan,nan,nan,nan,nan,nan,nan,nan,nan,nan,nan,nan,nan,nan,nan,nan,nan,nan,nan,nan,nan,nan,nan,nan,nan,nan,nan,nan,nan,nan,nan,nan,nan,nan,nan,nan,nan,nan,inf,inf,inf,inf,inf,inf,inf,inf,inf,inf,inf,inf,inf,inf,inf,inf,1
1777399850.0936372280,nan,nan,nan,nan,nan,nan,nan,nan,nan,0.0000000000,0.0000000000,0.0000000000,0.0000000000,nan,nan,nan,nan,nan,nan,nan,nan,nan,nan,nan,nan,nan,nan,nan,nan,nan,nan,nan,nan,nan,nan,nan,nan,nan,nan,nan,nan,nan,nan,nan,nan,nan,nan,nan,0.0000000000,nan,nan,nan,inf,inf,inf,0.0000894070,inf,inf,inf,inf,inf,inf,inf,inf,inf,inf,inf,0.0000114441,131107
1777399850.1035919189,nan,nan,nan,nan,nan,nan,nan,nan,nan,0.0000000000,0.0000000000,0.0000000000,0.0000000000,nan,nan,nan,nan,nan,nan,0.2170985490,-0.0506984927,-0.0010713382,nan,nan,nan,nan,nan,nan,nan,nan,nan,nan,nan,nan,nan,nan,nan,nan,nan,nan,nan,nan,nan,nan,nan,nan,nan,nan,0.0000000000,-224.9686126709,-6.2481360435,0.0000000000,inf,inf,inf,0.0100440979,inf,inf,0.0000185966,inf,inf,0.0000078678,inf,inf,inf,inf,inf,0.0099661350,133411
1777399850.1135473251,nan,nan,nan,nan,nan,nan,nan,nan,nan,0.0000000000,0.0000000000,0.0000000000,0.0000000000,-0.0049849600,-0.0023471138,0.0004717888,-0.0421004444,-0.5685744286,-0.1759643555,0.2170985490,-0.0506984927,-0.0010713382,nan,nan,nan,nan,nan,nan,nan,nan,nan,nan,nan,nan,nan,nan,nan,nan,nan,0.0000000000,0.0000000000,0.0000000000,nan,nan,nan,-0.0000000000,-0.0000000000,0.0000000000,0.0000000000,-224.9686126709,-6.2481360435,0.0000000000,inf,inf,inf,0.0199995041,0.0000309944,0.0000224113,0.0099740028,inf,inf,0.0099632740,inf,inf,0.0000140667,inf,0.0000066757,0.0199215412,215523
1777399850.1235334873,nan,nan,nan,nan,nan,nan,nan,nan,nan,0.0000000000,0.0000000000,0.0000000000,0.0000000000,-0.0049849600,-0.0023471138,0.0004717888,-0.0421004444,-0.5685744286,-0.1759643555,0.2170985490,-0.0506984927,-0.0010713382,nan,nan,nan,0.0000000000,0.0000000000,0.0000000000,nan,nan,nan,0.0000000000,0.0000000000,0.0000000000,0.0000000000,0.0000000000,0.0000000000,0.0000000000,0.0000000000,0.0000000000,0.0000000000,0.0000000000,nan,nan,nan,-0.0000000000,-0.0000000000,0.0000000000,0.0000000000,-224.9686126709,-6.2481360435,0.0000000000,inf,inf,inf,0.0299856663,0.0100171566,0.0100085735,0.0199601650,0.0000233650,inf,0.0199494362,0.0000143051,0.0000069141,0.0100002289,inf,0.0099928379,0.0299077034,228323
1777399850.1335837841,0.0286510419,0.0298872963,0.0980948359,0.5867976610,-0.0121979670,0.0020970136,4.0900001526,4.0909090042,4.0928530693,0.0000000000,0.0000000000,0.0000000000,0.0000000000,-0.0049849600,-0.0023471138,0.0004717888,-0.0421004444,-0.5685744286,-0.1759643555,0.2170985490,-0.0506984927,-0.0010713382,nan,nan,nan,0.0000000000,0.0000000000,0.0000000000,nan,nan,nan,0.0000000000,0.0000000000,0.0000000000,0.0000000000,0.0000000000,0.0000000000,0.0000000000,0.0000000000,0.0000000000,0.0000000000,0.0000000000,-0.0000000000,-0.0000000000,0.0000000000,-0.0000000000,-0.0000000000,0.0000000000,0.0000000000,-224.9686126709,-6.2481360435,0.0000000000,0.0000522137,0.0000257492,0.0000143051,0.0400359631,0.0200674534,0.0200588703,0.0300104618,0.0100736618,inf,0.0299997330,0.0100646019,0.0100572109,0.0200505257,0.0000061989,0.0200431347,0.0399580002,261119
1777399850.1434755325,0.0286510419,0.0298872963,0.0980948359,0.5867976610,-0.0121979670,0.0020970136,4.0900001526,4.0909090042,4.0928530693,0.0000000000,0.0000000000,0.0000000000,0.0000000000,-0.0049849600,-0.0023471138,0.0004717888,-0.0421004444,-0.5685744286,-0.1759643555,0.2170985490,-0.0506984927,-0.0010713382,nan,nan,nan,0.0000000000,0.0000000000,0.0000000000,nan,nan,nan,0.0000000000,0.0000000000,0.0000000000,0.0000000000,0.0000000000,0.0000000000,0.0000000000,0.0000000000,0.0000000000,0.0000000000,0.0000000000,-0.0000000000,-0.0000000000,0.0000000000,-0.0000000000,-0.0000000000,0.0000000000,0.0000000000,-224.9686126709,-6.2481360435,0.0000000000,0.0099439621,0.0099174976,0.0099060535,0.0000073910,0.0299592018,0.0299506187,0.0399022102,0.0199654102,inf,0.0398914814,0.0199563503,0.0199489594,0.0299422741,0.0098979473,0.0299348831,0.0498497486,261119
1777399850.1536319256,0.0286510419,0.0298872963,0.0980948359,0.5867976610,-0.0121979670,0.0020970136,4.0900001526,4.0909090042,4.0928530693,0.0000000000,0.0000000000,0.0000000000,0.0000000000,-0.0049849600,-0.0023471138,0.0004717888,-0.0421004444,-0.5685744286,-0.1759643555,0.2170985490,-0.0506984927,-0.0010713382,nan,nan,nan,0.0000000000,0.0000000000,0.0000000000,0.0000000000,0.0000000000,0.1345985830,0.0000000000,0.0000000000,0.0000000000,0.0000000000,0.0000000000,0.0000000000,0.0000000000,0.0000000000,0.0000000000,0.0000000000,0.0000000000,-0.0000000000,-0.0000000000,0.0000000000,-0.0000000000,-0.0000000000,0.0000000000,0.0000000000,-224.9686126709,-6.2481360435,0.0000000000,0.0201003551,0.0200738907,0.0200624466,0.0101637840,0.0401155949,0.0401070118,0.0500586033,0.0301218033,0.0000128746,0.0500478745,0.0301127434,0.0301053524,0.0400986671,0.0200543404,0.0400912762,0.0600061417,262143
1777399850.1635932922,0.0286510419,0.0298872963,0.0980948359,0.5867976610,-0.0121979670,0.0020970136,4.0900001526,4.0909090042,4.0928530693,0.0000000000,0.0000000000,0.0000000000,0.0000000000,-0.0049849600,-0.0023471138,0.0004717888,-0.0421004444,-0.5685744286,-0.1759643555,0.2170985490,-0.0506984927,-0.0010713382,nan,nan,nan,0.0000000000,0.0000000000,0.0000000000,0.0000000000,0.0000000000,0.1345985830,0.0000000000,0.0000000000,0.0000000000,0.0000000000,0.0000000000,0.0000000000,0.0000000000,0.0000000000,0.0000000000,0.0000000000,0.0000000000,-0.0000000000,-0.0000000000,0.0000000000,-0.0000000000,-0.0000000000,0.0000000000,0.0000000000,-224.9686126709,-6.2481360435,0.0000000000,0.0300617218,0.0300352573,0.0300238132,0.0201251507,0.0500769615,0.0500683784,0.0600199699,0.0400831699,0.0099742413,0.0600092411,0.0400741100,0.0400667191,0.0000245571,0.0300157070,0.0000138283,0.0699675083,262143
1777399850.1735303402,0.0286510419,0.0298872963,0.0980948359,0.5867976610,-0.0121979670,0.0020970136,4.0900001526,4.0909090042,4.0928530693,0.0000000000,0.0000000000,0.0000000000,0.0000000000,-0.0049849600,-0.0023471138,0.0004717888,-0.0421004444,-0.5685744286,-0.1759643555,0.2170985490,-0.0506984927,-0.0010713382,nan,nan,nan,0.0000000000,0.0000000000,0.0000000000,0.0000000000,0.0000000000,0.1345985830,0.0000000000,0.0000000000,0.0000000000,0.0000000000,0.0000000000,0.0000000000,0.0000000000,0.0000000000,0.0000000000,0.0000000000,0.0000000000,-0.0000000000,-0.0000000000,0.0000000000,-0.0000000000,-0.0000000000,0.0000000000,0.0000000000,-224.9686126709,-6.2481360435,0.0000000000,0.0399987698,0.0399723053,0.0399608612,0.0300621986,0.0600140095,0.0600054264,0.0699570179,0.0500202179,0.0199112892,0.0699462891,0.0000152588,0.0000066757,0.0099616051,0.0399527550,0.0099508762,0.0799045563,262143
1777399850.1834969521,0.0283476301,0.0297999326,0.0981912389,0.5435625270,-0.0094837969,0.0031031288,4.0900001526,4.0909090042,4.0928082466,0.0000000000,0.0000000000,0.0000000000,0.0000000000,-0.0049849600,-0.0023471138,0.0004717888,-0.0421004444,-0.5685744286,-0.1759643555,0.2170985490,-0.0506984927,-0.0010713382,nan,nan,nan,0.0000000000,0.0000000000,0.0000000000,0.0000000000,0.0000000000,0.1345985830,0.0000000000,0.0000000000,0.0000000000,0.0000000000,0.0000000000,0.0000000000,0.0000000000,0.0000000000,0.0000000000,0.0000000000,0.0000000000,-0.0000000000,-0.0000000000,0.0000000000,-0.0000000000,-0.0000000000,0.0000000000,0.0000000000,-224.9686126709,-6.2481360435,0.0000000000,0.0000269413,0.0499389172,0.0000152588,0.0400288105,0.0699806213,0.0699720383,0.0799236298,0.0599868298,0.0298779011,0.0799129009,0.0099818707,0.0099732876,0.0199282169,0.0000069141,0.0199174881,0.0898711681,262143
1777399850.1934587955,0.0283476301,0.0297999326,0.0981912389,0.5435625270,-0.0094837969,0.0031031288,4.0900001526,4.0909090042,4.0928082466,0.0000000000,0.0000000000,0.0000000000,0.0000000000,-0.0049849600,-0.0023471138,0.0004717888,-0.0421004444,-0.5685744286,-0.1759643555,0.2170985490,-0.0506984927,-0.0010713382,nan,nan,nan,0.0000000000,0.0000000000,0.0000000000,0.0000000000,0.0000000000,0.1345985830,0.0000000000,0.0000000000,0.0000000000,0.0000000000,0.0000000000,0.0000000000,0.0000000000,0.0000000000,0.0000000000,0.0000000000,0.0000000000,-0.0000000000,-0.0000000000,0.0000000000,-0.0000000000,-0.0000000000,0.0000000000,0.0000000000,-224.9686126709,-6.2481360435,0.0000000000,0.0099887848,0.0599007607,0.0099771023,0.0000069141,0.0799424648,0.0799338818,0.0898854733,0.0699486732,0.0398397446,0.0898747444,0.0199437141,0.0199351311,0.0298900604,0.0099687576,0.0298793316,0.0998330116,262143
1777399850.2034575939,0.0283476301,0.0297999326,0.0981912389,0.5435625270,-0.0094837969,0.0031031288,4.0900001526,4.0909090042,4.0928082466,0.0000000000,0.0000000000,0.0000000000,0.0000000000,-0.0049849600,-0.0023471138,0.0004717888,-0.0421004444,-0.5685744286,-0.1759643555,-0.0634306297,-0.0274130963,-0.0136826802,-2.8089376495,0.2331565897,-0.1262773219,0.0000000000,0.0000000000,0.0000000000,0.0000000000,0.0000000000,0.1345985830,0.0000000000,0.0000000000,0.0000000000,0.0000000000,0.0000000000,0.0000000000,0.0000000000,0.0000000000,0.0000000000,0.0000000000,0.0000000000,-0.0000000000,-0.0000000000,0.0000000000,-0.0000000000,-0.0000000000,0.0000000000,0.0000000000,-193.8947296143,-3.3899533749,0.0000000000,0.0199875832,0.0698995590,0.0199759007,0.0100057125,0.0899412632,0.0899326801,0.0000140667,0.0799474716,0.0498385429,0.0000054836,0.0299425125,0.0299339294,0.0398888588,0.0199675560,0.0398781300,0.1098318100,262143
1777399850.2134835720,0.0283476301,0.0297999326,0.0981912389,0.5435625270,-0.0094837969,0.0031031288,4.0900001526,4.0909090042,4.0928082466,0.0000000000,0.0000000000,0.0000000000,0.0000000000,-0.0049849600,-0.0023471138,0.0004717888,-0.0382014215,-0.4973857403,-0.1324583888,-0.0634306297,-0.0274130963,-0.0136826802,-2.8089376495,0.2331565897,-0.1262773219,0.0000000000,0.0000000000,0.0000000000,0.0000000000,0.0000000000,0.1345985830,0.0000000000,0.0000000000,0.0000000000,0.0000000000,0.0000000000,0.0000000000,0.0000000000,0.0000000000,0.0000000000,0.0000000000,0.0000000000,-0.0000000000,-0.0000000000,0.0000000000,-0.0000000000,-0.0000000000,0.0000000000,0.0000000000,-193.8947296143,-3.3899533749,0.0000000000,0.0300135612,0.0799255371,0.0300018787,0.0200316906,0.0999672413,0.0000309944,0.0100400448,0.0000216961,0.0598645210,0.0100314617,0.0399684906,0.0399599075,0.0000145435,0.0299935341,0.0000071526,0.1198577881,262143
1777399850.2235043049,0.0283476301,0.0297999326,0.0981912389,0.5435625270,-0.0094837969,0.0031031288,4.0900001526,4.0909090042,4.0928082466,0.0000000000,0.0000000000,0.0000000000,0.0000000000,-0.0083416337,-0.0030920131,0.0002770321,-0.0382014215,-0.4973857403,-0.1324583888,-0.0634306297,-0.0274130963,-0.0136826802,-2.8089376495,0.2331565897,-0.1262773219,0.0000000000,0.0000000000,0.0000000000,0.0000000000,0.0000000000,0.1345985830,0.0000000000,0.0000000000,0.0000000000,0.0000000000,0.0000000000,0.0000000000,0.0000000000,0.0000000000,0.0000000000,0.0000000000,0.0000000000,-0.0000000000,-0.0000000000,0.0000000000,-0.0000000000,-0.0000000000,0.0000000000,0.0000000000,-193.8947296143,-3.3899533749,0.0000000000,0.0400342941,0.0899462700,0.0400226116,0.0300524235,0.0000257492,0.0100517273,0.0200607777,0.0100424290,0.0698852539,0.0200521946,0.0000150204,0.0000073910,0.0100352764,0.0400142670,0.0100278854,0.1298785210,262143
1777399850.2334783077,0.0279583689,0.0296780597,0.0982890874,0.5034562423,-0.0060499796,0.0013016566,4.0900001526,4.0909090042,4.0928277969,0.0000000000,0.0000000000,0.0000000000,0.0000000000,-0.0083416337,-0.0030920131,0.0002770321,-0.0382014215,-0.4973857403,-0.1324583888,-0.0634306297,-0.0274130963,-0.0136826802,-2.8089376495,0.2331565897,-0.1262773219,0.0000000000,0.0000000000,0.0000000000,0.0000000000,0.0000000000,0.1345985830,0.0000000000,0.0000000000,0.0000000000,0.0000000000,0.0000000000,0.0000000000,0.0000000000,0.0000000000,0.0000000000,0.0000000000,0.0000000000,-0.0000000000,-0.0000000000,0.0000000000,-0.0000000000,-0.0000000000,0.0000000000,0.0000000000,-193.8947296143,-3.3899533749,0.0000000000,0.0000250340,0.0999202728,0.0000138283,0.0400264263,0.0099997520,0.0200257301,0.0300347805,0.0200164318,0.0798592567,0.0300261974,0.0099890232,0.0099813938,0.0200092793,0.0000057220,0.0200018883,0.1398525238,262143
1777399850.2434556484,0.0279583689,0.0296780597,0.0982890874,0.5034562423,-0.0060499796,0.0013016566,4.0900001526,4.0909090042,4.0928277969,0.0000000000,0.0000000000,0.0000000000,0.0000000000,-0.0083416337,-0.0030920131,0.0002770321,-0.0382014215,-0.4973857403,-0.1324583888,-0.0634306297,-0.0274130963,-0.0136826802,-2.8089376495,0.2331565897,-0.1262773219,0.0000000000,0.0000000000,0.0000000000,0.0000000000,0.0000000000,0.1345985830,0.0000000000,0.0000000000,0.0000000000,0.0000000000,0.0000000000,0.0000000000,0.0000000000,0.0000000000,0.0000000000,0.0000000000,0.0000000000,-0.0000000000,-0.0000000000,0.0000000000,-0.0000000000,-0.0000000000,0.0000000000,0.0000000000,-193.8947296143,-3.3899533749,0.0000000000,0.0100023746,0.1098976135,0.0099911690,0.0000059605,0.0199770927,0.0300030708,0.0400121212,0.0299937725,0.0898365974,0.0400035381,0.0199663639,0.0199587345,0.0299866199,0.0099830627,0.0299792290,0.1498298645,262143
1777399850.2534897327,0.0279583689,0.0296780597,0.0982890874,0.5034562423,-0.0060499796,0.0013016566,4.0900001526,4.0909090042,4.0928277969,0.0000000000,0.0000000000,0.0000000000,0.0000000000,-0.0083416337,-0.0030920131,0.0002770321,-0.0382014215,-0.4973857403,-0.1324583888,-0.0634306297,-0.0274130963,-0.0136826802,-2.8089376495,0.2331565897,-0.1262773219,0.0000000000,0.0000000000,0.0000000000,0.0000000000,0.0000000000,0.1336159110,0.0000000000,0.0000000000,0.0000000000,0.0000000000,0.0000000000,0.0000000000,0.0000000000,0.0000000000,0.0000000000,0.0000000000,0.0000000000,-0.0000000000,-0.0000000000,0.0000000000,-0.0000000000,-0.0000000000,0.0000000000,0.0000000000,-193.8947296143,-3.3899533749,0.0000000000,0.0200364590,0.1199316978,0.0200252533,0.0100400448,0.0300111771,0.0400371552,0.0500462055,0.0400278568,0.0000092983,0.0500376225,0.0300004482,0.0299928188,0.0400207043,0.0200171471,0.0400133133,0.1598639488,262143
1777399850.2635180950,0.0279583689,0.0296780597,0.0982890874,0.5034562423,-0.0060499796,0.0013016566,4.0900001526,4.0909090042,4.0928277969,0.0000000000,0.0000000000,0.0000000000,0.0000000000,-0.0083416337,-0.0030920131,0.0002770321,-0.0382014215,-0.4973857403,-0.1324583888,-0.0634306297,-0.0274130963,-0.0136826802,-2.8089376495,0.2331565897,-0.1262773219,0.0000000000,0.0000000000,0.0000000000,0.0000000000,0.0000000000,0.1336159110,0.0000000000,0.0000000000,0.0000000000,0.0000000000,0.0000000000,0.0000000000,0.0000000000,0.0000000000,0.0000000000,0.0000000000,0.0000000000,-0.0000000000,-0.0000000000,0.0000000000,-0.0000000000,-0.0000000000,0.0000000000,0.0000000000,-193.8947296143,-3.3899533749,0.0000000000,0.0300648212,0.1299600601,0.0300536156,0.0200684071,0.0400395393,0.0500655174,0.0600745678,0.0500562191,0.0100376606,0.0600659847,0.0400288105,0.0400211811,0.0000195503,0.0300455093,0.0000085831,0.1698923111,262143
1777399850.2735936642,0.0274826363,0.0295236949,0.0984209403,0.4692376075,-0.0033350988,0.0020483457,4.0900001526,4.0909090042,4.0928277969,0.0000000000,0.0000000000,0.0000000000,0.0000000000,-0.0083416337,-0.0030920131,0.0002770321,-0.0382014215,-0.4973857403,-0.1324583888,-0.0634306297,-0.0274130963,-0.0136826802,-2.8089376495,0.2331565897,-0.1262773219,0.0000000000,0.0000000000,0.0000000000,0.0000000000,0.0000000000,0.1336159110,0.0000000000,0.0000000000,0.0000000000,0.0000000000,0.0000000000,0.0000000000,0.0000000000,0.0000000000,0.0000000000,0.0000000000,0.0000000000,-0.0000000000,-0.0000000000,0.0000000000,-0.0000000000,-0.0000000000,0.0000000000,0.0000000000,-193.8947296143,-3.3899533749,0.0000000000,0.0000381470,0.1400356293,0.0401291847,0.0301439762,0.0501151085,0.0601410866,0.0701501369,0.0601317883,0.0201132298,0.0701415539,0.0000176430,0.0000088215,0.0100951195,0.0401210785,0.0100841522,0.1799678802,262143
1777399850.2835288048,0.0274826363,0.0295236949,0.0984209403,0.4692376075,-0.0033350988,0.0020483457,4.0900001526,4.0909090042,4.0927591324,0.0000000000,0.0000000000,0.0000000000,0.0000000000,-0.0083416337,-0.0030920131,0.0002770321,-0.0382014215,-0.4973857403,-0.1324583888,-0.0634306297,-0.0274130963,-0.0136826802,-2.8089376495,0.2331565897,-0.1262773219,0.0000000000,0.0000000000,0.0000000000,0.0000000000,0.0000000000,0.1336159110,0.0000000000,0.0000000000,0.0000000000,0.0000000000,0.0000000000,0.0000000000,0.0000000000,0.0000000000,0.0000000000,0.0000000000,0.0000000000,-0.0000000000,-0.0000000000,0.0000000000,-0.0000000000,-0.0000000000,0.0000000000,0.0000000000,-193.8947296143,-3.3899533749,0.0000000000,0.0099732876,0.1499707699,0.0000205040,0.0400791168,0.0600502491,0.0700762272,0.0800852776,0.0700669289,0.0300483704,0.0800766945,0.0099527836,0.0099439621,0.0200302601,0.0000088215,0.0200192928,0.1899030209,262143
1777399850.2935779095,0.0274826363,0.0295236949,0.0984209403,0.4692376075,-0.0033350988,0.0020483457,4.0900001526,4.0909090042,4.0927591324,0.0000000000,0.0000000000,0.0000000000,0.0000000000,-0.0083416337,-0.0030920131,0.0002770321,-0.0382014215,-0.4973857403,-0.1324583888,0.0123864161,-0.2510912120,0.2106648237,0.8413203403,-2.4820928671,2.4895208778,0.0000000000,0.0000000000,0.0000000000,0.0000000000,0.0000000000,0.1336159110,0.0000000000,0.0000000000,0.0000000000,0.0000000000,0.0000000000,0.0000000000,0.0000000000,0.0000000000,0.0000000000,0.0000000000,0.0000000000,-0.0000000000,-0.0000000000,0.0000000000,-0.0000000000,-0.0000000000,0.0000000000,0.0000000000,-193.8947296143,-3.3899533749,0.0000000000,0.0200223923,0.1600198746,0.0100696087,0.0000386238,0.0700993538,0.0801253319,0.0000176430,0.0801160336,0.0400974751,0.0901257992,0.0200018883,0.0199930668,0.0300793648,0.0100579262,0.0300683975,0.0000078678,262143
1777399850.3035626411,0.0274826363,0.0295236949,0.0984209403,0.4692376075,-0.0033350988,0.0020483457,4.0900001526,4.0909090042,4.0927591324,0.0000000000,0.0000000000,0.0000000000,0.0000000000,-0.0083416337,-0.0030920131,0.0002770321,-0.0382014215,-0.4973857403,-0.1324583888,0.0123864161,-0.2510912120,0.2106648237,0.8413203403,-2.4820928671,2.4895208778,0.0000000000,0.0000000000,0.0000000000,0.0000000000,0.0000000000,0.1336159110,0.0000000000,0.0000000000,0.0000000000,0.0000000000,0.0000000000,0.0000000000,0.0000000000,0.0000000000,0.0000000000,0.0000000000,0.0000000000,-0.0000000000,-0.0000000000,0.0000000000,-0.0000000000,-0.0000000000,0.0000000000,0.0000000000,-166.5809020996,-0.6994571090,0.0000000000,0.0300071239,0.1700046062,0.0200543404,0.0100233555,0.0800840855,0.0901100636,0.0100023746,0.0000216961,0.0500822067,0.0000095367,0.0299866199,0.0299777985,0.0400640965,0.0200426579,0.0400531292,0.0099925995,262143
1777399850.3135175705,0.0274826363,0.0295236949,0.0984209403,0.4692376075,-0.0033350988,0.0020483457,4.0900001526,4.0909090042,4.0927591324,0.0000000000,0.0000000000,0.0000000000,0.0000000000,-0.0083416337,-0.0030920131,0.0002770321,-0.0325452611,-0.4328160584,-0.0954445004,0.0123864161,-0.2510912120,0.2106648237,0.8413203403,-2.4820928671,2.4895208778,0.0000000000,0.0000000000,0.0000000000,0.0000000000,0.0000000000,0.1336159110,0.0000000000,0.0000000000,0.0000000000,0.0000000000,0.0000000000,0.0000000000,0.0000000000,0.0000000000,0.0000000000,0.0000000000,0.0000000000,-0.0000000000,-0.0000000000,0.0000000000,-0.0000000000,-0.0000000000,0.0000000000,0.0000000000,-166.5809020996,-0.6994571090,0.0000000000,0.0399620533,0.1799595356,0.0300092697,0.0199782848,0.0900390148,0.0000174046,0.0199573040,0.0099766254,0.0600371361,0.0099644661,0.0399415493,0.0399327278,0.0500190258,0.0299975872,0.0000071526,0.0199475288,262143
1777399850.3235933781,0.0287523977,0.0299284253,0.0980543867,0.4323275302,-0.0005935946,0.0027031344,4.0900001526,4.0909090042,4.0927591324,0.0000000000,0.0000000000,0.0000000000,0.0000000000,-0.0118619408,-0.0042194221,0.0012103550,-0.0325452611,-0.4328160584,-0.0954445004,0.0123864161,-0.2510912120,0.2106648237,0.8413203403,-2.4820928671,2.4895208778,0.0000000000,0.0000000000,0.0000000000,0.0000000000,0.0000000000,0.1336159110,0.0000000000,0.0000000000,0.0000000000,0.0000000000,0.0000000000,0.0000000000,0.0000000000,0.0000000000,0.0000000000,0.0000000000,0.0000000000,-0.0000000000,-0.0000000000,0.0000000000,-0.0000000000,-0.0000000000,0.0000000000,0.0000000000,-166.5809020996,-0.6994571090,0.0000000000,0.0000624657,0.1900353432,0.0400850773,0.0300540924,0.0000362396,0.0100932121,0.0300331116,0.0200524330,0.0701129436,0.0200402737,0.0000262260,0.0000185966,0.0000095367,0.0400733948,0.0100829601,0.0300233364,262143
1777399850.3335480690,0.0287523977,0.0299284253,0.0980543867,0.4323275302,-0.0005935946,0.0027031344,4.0900001526,4.0961875916,4.0927300453,0.0000000000,0.0000000000,0.0000000000,0.0000000000,-0.0118619408,-0.0042194221,0.0012103550,-0.0325452611,-0.4328160584,-0.0954445004,0.0123864161,-0.2510912120,0.2106648237,0.8413203403,-2.4820928671,2.4895208778,0.0000000000,0.0000000000,0.0000000000,0.0000000000,0.0000000000,0.1336159110,0.0000000000,0.0000000000,0.0000000000,0.0000000000,0.0000000000,0.0000000000,0.0000000000,0.0000000000,0.0000000000,0.0000000000,0.0000000000,0.0000000000,-0.0000000000,0.0000000000,-0.0000000000,-0.0000000000,0.0000000000,0.0000000000,-166.5809020996,-0.6994571090,0.0000000000,0.0100171566,0.1999900341,0.0000219345,0.0400087833,0.0099909306,0.0200479031,0.0399878025,0.0300071239,0.0800676346,0.0299949646,0.0099809170,0.0099732876,0.0099642277,0.0000097752,0.0200376511,0.0399780273,262143
1777399850.3435189724,0.0287523977,0.0299284253,0.0980543867,0.4323275302,-0.0005935946,0.0027031344,4.0900001526,4.0961875916,4.0927300453,0.0000000000,0.0000000000,0.0000000000,0.0000000000,-0.0118619408,-0.0042194221,0.0012103550,-0.0325452611,-0.4328160584,-0.0954445004,0.0123864161,-0.2510912120,0.2106648237,0.8413203403,-2.4820928671,2.4895208778,0.0000000000,0.0000000000,0.0000000000,0.0000000000,0.0000000000,0.1336159110,0.0000000000,0.0000000000,0.0000000000,0.0000000000,0.0000000000,0.0000000000,0.0000000000,0.0000000000,0.0000000000,0.0000000000,0.0000000000,0.0000000000,-0.0000000000,0.0000000000,-0.0000000000,-0.0000000000,0.0000000000,0.0000000000,-166.5809020996,-0.6994571090,0.0000000000,0.0199880600,0.2099609375,0.0099928379,0.0000104904,0.0199618340,0.0300188065,0.0499587059,0.0399780273,0.0900385380,0.0399658680,0.0199518204,0.0199441910,0.0199351311,0.0099806786,0.0300085545,0.0499489307,262143
1777399850.3535532951,0.0287523977,0.0299284253,0.0980543867,0.4323275302,-0.0005935946,0.0027031344,4.0900001526,4.0961875916,4.0927300453,0.0000000000,0.0000000000,0.0000000000,0.0000000000,-0.0118619408,-0.0042194221,0.0012103550,-0.0325452611,-0.4328160584,-0.0954445004,0.0123864161,-0.2510912120,0.2106648237,0.8413203403,-2.4820928671,2.4895208778,0.0000000000,0.0000000000,0.0000000000,0.0000000000,0.0000000000,0.1363265663,0.0000000000,0.0000000000,0.0000000000,0.0000000000,0.0000000000,0.0000000000,0.0000000000,0.0000000000,0.0000000000,0.0000000000,0.0000000000,0.0000000000,-0.0000000000,0.0000000000,-0.0000000000,-0.0000000000,0.0000000000,0.0000000000,-166.5809020996,-0.6994571090,0.0000000000,0.0300223827,0.2199952602,0.0200271606,0.0100448132,0.0299961567,0.0400531292,0.0599930286,0.0500123501,0.0000128746,0.0500001907,0.0299861431,0.0299785137,0.0299694538,0.0200150013,0.0400428772,0.0599832535,262143
1777399850.3635251522,0.0287523977,0.0299284253,0.0980543867,0.4323275302,-0.0005935946,0.0027031344,4.0900001526,4.0961875916,4.0927300453,0.0000000000,0.0000000000,0.0000000000,0.0000000000,-0.0118619408,-0.0042194221,0.0012103550,-0.0325452611,-0.4328160584,-0.0954445004,0.0123864161,-0.2510912120,0.2106648237,0.8413203403,-2.4820928671,2.4895208778,0.0000000000,0.0000000000,0.0000000000,0.0000000000,0.0000000000,0.1363265663,0.0000000000,0.0000000000,0.0000000000,0.0000000000,0.0000000000,0.0000000000,0.0000000000,0.0000000000,0.0000000000,0.0000000000,0.0000000000,0.0000000000,-0.0000000000,0.0000000000,0.0000000000,-0.0000000000,0.0000000000,0.0000000000,-166.5809020996,-0.6994571090,0.0000000000,0.0399942398,0.2299671173,0.0299990177,0.0200166702,0.0399680138,0.0500249863,0.0699648857,0.0599842072,0.0099847317,0.0599720478,0.0399580002,0.0399503708,0.0000178814,0.0299868584,0.0000078678,0.0699551105,262143
1777399850.3735487461,0.0285053961,0.0299012270,0.0981312692,0.4012157849,0.0021605689,0.0032635175,4.0900001526,4.0961875916,4.0927300453,0.0000000000,0.0000000000,0.0000000000,0.0000000000,-0.0118619408,-0.0042194221,0.0012103550,-0.0325452611,-0.4328160584,-0.0954445004,0.0123864161,-0.2510912120,0.2106648237,0.8413203403,-2.4820928671,2.4895208778,0.0000000000,0.0000000000,0.0000000000,0.0000000000,0.0000000000,0.1363265663,0.0000000000,0.0000000000,0.0000000000,0.0000000000,0.0000000000,0.0000000000,0.0000000000,0.0000000000,0.0000000000,0.0000000000,0.0000000000,0.0000000000,-0.0000000000,0.0000000000,0.0000000000,-0.0000000000,0.0000000000,0.0000000000,-166.5809020996,-0.6994571090,0.0000000000,0.0000333786,0.2399907112,0.0400226116,0.0300402641,0.0499916077,0.0600485802,0.0799884796,0.0700078011,0.0200083256,0.0699956417,0.0000147820,0.0000069141,0.0100414753,0.0400104523,0.0100314617,0.0799787045,262143
1777399850.3835535049,0.0285053961,0.0299012270,0.0981312692,0.4012157849,0.0021605689,0.0032635175,4.0900001526,4.0961875916,4.0927438736,0.0000000000,0.0000000000,0.0000000000,0.0000000000,-0.0118619408,-0.0042194221,0.0012103550,-0.0325452611,-0.4328160584,-0.0954445004,0.0123864161,-0.2510912120,0.2106648237,0.8413203403,-2.4820928671,2.4895208778,0.0000000000,0.0000000000,0.0000000000,0.0000000000,0.0000000000,0.1363265663,0.0000000000,0.0000000000,0.0000000000,0.0000000000,0.0000000000,0.0000000000,0.0000000000,0.0000000000,0.0000000000,0.0000000000,0.0000000000,0.0000000000,-0.0000000000,0.0000000000,0.0000000000,-0.0000000000,0.0000000000,0.0000000000,-166.5809020996,-0.6994571090,0.0000000000,0.0100381374,0.2499954700,0.0000188351,0.0400450230,0.0599963665,0.0700533390,0.0899932384,0.0800125599,0.0300130844,0.0800004005,0.0100195408,0.0100116730,0.0200462341,0.0000078678,0.0200362206,0.0899834633,262143
1777399850.3935346603,0.0285053961,0.0299012270,0.0981312692,0.4012157849,0.0021605689,0.0032635175,4.0900001526,4.0961875916,4.0927438736,0.0000000000,0.0000000000,0.0000000000,0.0000000000,-0.0118619408,-0.0042194221,0.0012103550,-0.0325452611,-0.4328160584,-0.0954445004,0.0123864161,-0.2510912120,0.2106648237,0.8413203403,-2.4820928671,2.4895208778,0.0000000000,0.0000000000,0.0000000000,0.0000000000,0.0000000000,0.1363265663,0.0000000000,0.0000000000,0.0000000000,0.0000000000,0.0000000000,0.0000000000,0.0000000000,0.0000000000,0.0000000000,0.0000000000,0.0000000000,0.0000000000,-0.0000000000,0.0000000000,0.0000000000,-0.0000000000,0.0000000000,0.0000000000,-166.5809020996,-0.6994571090,0.0000000000,0.0200192928,0.2599766254,0.0099999905,0.0000326633,0.0699775219,0.0800344944,0.0999743938,0.0000083447,0.0399942398,0.0899815559,0.0200006962,0.0199928284,0.0300273895,0.0099890232,0.0300173759,0.0999646187,262143
1777399850.4035632610,0.0285053961,0.0299012270,0.0981312692,0.4012157849,0.0021605689,0.0032635175,4.0900001526,4.0961875916,4.0927438736,0.0000000000,0.0000000000,0.0000000000,0.0000000000,-0.0118619408,-0.0042194221,0.0012103550,-0.0325452611,-0.4328160584,-0.0954445004,-0.0573763736,-0.0386570022,0.1362132281,-0.6343053957,1.9315191702,-0.6769375051,0.0000000000,0.0000000000,0.0000000000,0.0000000000,0.0000000000,0.1363265663,0.0000000000,0.0000000000,0.0000000000,0.0000000000,0.0000000000,0.0000000000,0.0000000000,0.0000000000,0.0000000000,0.0000000000,0.0000000000,0.0000000000,-0.0000000000,0.0000000000,0.0000000000,-0.0000000000,0.0000000000,0.0000000000,-142.8133850098,1.8669332266,0.0000000000,0.0300478935,0.2700052261,0.0200285912,0.0100612640,0.0800061226,0.0900630951,0.0000200272,0.0100369453,0.0500228405,0.0000081062,0.0300292969,0.0300214291,0.0400559902,0.0200176239,0.0400459766,0.1099932194,262143
1777399850.4135444164,0.0285053961,0.0299012270,0.0981312692,0.4012157849,0.0021605689,0.0032635175,4.0900001526,4.0961875916,4.0927438736,0.0000000000,0.0000000000,0.0000000000,0.0000000000,-0.0067947879,-0.0016667264,0.0017869819,-0.0274145752,-0.3726735413,-0.0713441372,-0.0573763736,-0.0386570022,0.1362132281,-0.6343053957,1.9315191702,-0.6769375051,0.0000000000,0.0000000000,0.0000000000,0.0000000000,0.0000000000,0.1363265663,0.0000000000,0.0000000000,0.0000000000,0.0000000000,0.0000000000,0.0000000000,0.0000000000,0.0000000000,0.0000000000,0.0000000000,0.0000000000,0.0000000000,-0.0000000000,0.0000000000,0.0000000000,-0.0000000000,0.0000000000,0.0000000000,-142.8133850098,1.8669332266,0.0000000000,0.0400290489,0.2799863815,0.0300097466,0.0200424194,0.0000305176,0.0000209808,0.0100011826,0.0200181007,0.0600039959,0.0099892616,0.0400104523,0.0400025845,0.0000138283,0.0299987793,0.0000069141,0.1199743748,262143
1777399850.4235556126,0.0281921402,0.0298522580,0.0982395187,0.3701974120,0.0054405401,0.0010187001,4.0900001526,4.0961875916,4.0927438736,0.0000000000,0.0000000000,0.0000000000,0.0000000000,-0.0067947879,-0.0016667264,0.0017869819,-0.0274145752,-0.3726735413,-0.0713441372,-0.0573763736,-0.0386570022,0.1362132281,-0.6343053957,1.9315191702,-0.6769375051,0.0000000000,0.0000000000,0.0000000000,0.0000000000,0.0000000000,0.1363265663,0.0000000000,0.0000000000,0.0000000000,0.0000000000,0.0000000000,0.0000000000,0.0000000000,0.0000000000,0.0000000000,0.0000000000,0.0000000000,0.0000000000,-0.0000000000,0.0000000000,0.0000000000,-0.0000000000,0.0000000000,0.0000000000,-142.8133850098,1.8669332266,0.0000000000,0.0000317097,0.2899975777,0.0400209427,0.0300536156,0.0100417137,0.0100321770,0.0200123787,0.0300292969,0.0700151920,0.0200004578,0.0000154972,0.0000071526,0.0100250244,0.0400099754,0.0100181103,0.1299855709,262143
1777399850.4335424900,0.0281921402,0.0298522580,0.0982395187,0.3701974120,0.0054405401,0.0010187001,4.0900001526,4.0909090042,4.0928683281,0.0000000000,0.0000000000,0.0000000000,0.0000000000,-0.0067947879,-0.0016667264,0.0017869819,-0.0274145752,-0.3726735413,-0.0713441372,-0.0573763736,-0.0386570022,0.1362132281,-0.6343053957,1.9315191702,-0.6769375051,0.0000000000,0.0000000000,0.0000000000,0.0000000000,0.0000000000,0.1363265663,0.0000000000,0.0000000000,0.0000000000,0.0000000000,0.0000000000,0.0000000000,0.0000000000,0.0000000000,0.0000000000,0.0000000000,0.0000000000,0.0000000000,-0.0000000000,0.0000000000,0.0000000000,-0.0000000000,0.0000000000,0.0000000000,-142.8133850098,1.8669332266,0.0000000000,0.0100185871,0.2999844551,0.0000183582,0.0400404930,0.0200285912,0.0200190544,0.0299992561,0.0400161743,0.0800020695,0.0299873352,0.0100023746,0.0099940300,0.0200119019,0.0000078678,0.0200049877,0.1399724483,262143
1777399850.4435288906,0.0281921402,0.0298522580,0.0982395187,0.3701974120,0.0054405401,0.0010187001,4.0900001526,4.0909090042,4.0928683281,0.0000000000,0.0000000000,0.0000000000,0.0000000000,-0.0067947879,-0.0016667264,0.0017869819,-0.0274145752,-0.3726735413,-0.0713441372,-0.0573763736,-0.0386570022,0.1362132281,-0.6343053957,1.9315191702,-0.6769375051,0.0000000000,0.0000000000,0.0000000000,0.0000000000,0.0000000000,0.1363265663,0.0000000000,0.0000000000,0.0000000000,0.0000000000,0.0000000000,0.0000000000,0.0000000000,0.0000000000,0.0000000000,0.0000000000,0.0000000000,0.0000000000,-0.0000000000,0.0000000000,0.0000000000,-0.0000000000,0.0000000000,0.0000000000,-142.8133850098,1.8669332266,0.0000000000,0.0200049877,0.3099708557,0.0100047588,0.0000092983,0.0300149918,0.0300054550,0.0399856567,0.0500025749,0.0899884701,0.0399737358,0.0199887753,0.0199804306,0.0299983025,0.0099942684,0.0299913883,0.1499588490,262143
1777399850.4535789490,0.0281921402,0.0298522580,0.0982395187,0.3701974120,0.0054405401,0.0010187001,4.0900001526,4.0909090042,4.0928683281,0.0000000000,0.0000000000,0.0000000000,0.0000000000,-0.0067947879,-0.0016667264,0.0017869819,-0.0274145752,-0.3726735413,-0.0713441372,-0.0573763736,-0.0386570022,0.1362132281,-0.6343053957,1.9315191702,-0.6769375051,0.0000000000,0.0000000000,0.0000000000,0.0000000000,0.0000000000,0.1364852786,0.0000000000,0.0000000000,0.0000000000,0.0000000000,0.0000000000,0.0000000000,0.0000000000,0.0000000000,0.0000000000,0.0000000000,0.0000000000,0.0000000000,-0.0000000000,0.0000000000,0.0000000000,-0.0000000000,0.0000000000,0.0000000000,-142.8133850098,1.8669332266,0.0000000000,0.0300550461,0.3200209141,0.0200548172,0.0100593567,0.0400650501,0.0400555134,0.0500357151,0.0600526333,0.0000109673,0.0500237942,0.0300388336,0.0300304890,0.0400483608,0.0200443268,0.0400414467,0.1600089073,262143
1777399850.4635827541,0.0281921402,0.0298522580,0.0982395187,0.3701974120,0.0054405401,0.0010187001,4.0900001526,4.0909090042,4.0928683281,0.0000000000,0.0000000000,0.0000000000,0.0000000000,-0.0067947879,-0.0016667264,0.0017869819,-0.0274145752,-0.3726735413,-0.0713441372,-0.0573763736,-0.0386570022,0.1362132281,-0.6343053957,1.9315191702,-0.6769375051,0.0000000000,0.0000000000,0.0000000000,0.0000000000,0.0000000000,0.1364852786,0.0000000000,0.0000000000,0.0000000000,0.0000000000,0.0000000000,0.0000000000,0.0000000000,0.0000000000,0.0000000000,0.0000000000,0.0000000000,0.0000000000,-0.0000000000,0.0000000000,0.0000000000,-0.0000000000,0.0000000000,0.0000000000,-142.8133850098,1.8669332266,0.0000000000,0.0400588512,0.3300247192,0.0300586224,0.0200631618,0.0500688553,0.0500593185,0.0600395203,0.0700564384,0.0100147724,0.0600275993,0.0400426388,0.0400342941,0.0000214577,0.0300481319,0.0000095367,0.1700127125,262143
1777399850.4735257626,0.0277918167,0.0297967996,0.0983737335,0.3420817038,0.0081814975,0.0014131857,4.0900001526,4.0909090042,4.0928683281,0.0000000000,0.0000000000,0.0000000000,0.0000000000,-0.0067947879,-0.0016667264,0.0017869819,-0.0274145752,-0.3726735413,-0.0713441372,-0.0573763736,-0.0386570022,0.1362132281,-0.6343053957,1.9315191702,-0.6769375051,0.0000000000,0.0000000000,0.0000000000,0.0000000000,0.0000000000,0.1364852786,0.0000000000,0.0000000000,0.0000000000,0.0000000000,0.0000000000,0.0000000000,0.0000000000,0.0000000000,0.0000000000,0.0000000000,0.0000000000,0.0000000000,-0.0000000000,0.0000000000,0.0000000000,-0.0000000000,0.0000000000,0.0000000000,-142.8133850098,1.8669332266,0.0000000000,0.0000357628,0.3399677277,0.0400016308,0.0300061703,0.0600118637,0.0600023270,0.0699825287,0.0799994469,0.0199577808,0.0699706078,0.0000169277,0.0000076294,0.0099644661,0.0399911404,0.0099525452,0.1799557209,262143
1777399850.4834907055,0.0277918167,0.0297967996,0.0983737335,0.3420817038,0.0081814975,0.0014131857,4.0900001526,4.0961875916,4.0929007530,0.0000000000,0.0000000000,0.0000000000,0.0000000000,-0.0067947879,-0.0016667264,0.0017869819,-0.0274145752,-0.3726735413,-0.0713441372,-0.0573763736,-0.0386570022,0.1362132281,-0.6343053957,1.9315191702,-0.6769375051,0.0000000000,0.0000000000,0.0000000000,0.0000000000,0.0000000000,0.1364852786,0.0000000000,0.0000000000,0.0000000000,0.0000000000,0.0000000000,0.0000000000,0.0000000000,0.0000000000,0.0000000000,0.0000000000,0.0000000000,0.0000000000,-0.0000000000,0.0000000000,0.0000000000,-0.0000000000,0.0000000000,0.0000000000,-142.8133850098,1.8669332266,0.0000000000,0.0100007057,0.3499326706,0.0000255108,0.0399711132,0.0699768066,0.0699672699,0.0799474716,0.0000154972,0.0299227238,0.0799355507,0.0099818707,0.0099725723,0.0199294090,0.0000071526,0.0199174881,0.1899206638,262143
1777399850.4935362339,0.0277918167,0.0297967996,0.0983737335,0.3420817038,0.0081814975,0.0014131857,4.0900001526,4.0961875916,4.0929007530,0.0000000000,0.0000000000,0.0000000000,0.0000000000,-0.0067947879,-0.0016667264,0.0017869819,-0.0274145752,-0.3726735413,-0.0713441372,-0.1358210742,-0.2238328308,0.0360679664,-0.8718395755,-2.0580563685,-1.1130210417,0.0000000000,0.0000000000,0.0000000000,0.0000000000,0.0000000000,0.1364852786,0.0000000000,0.0000000000,0.0000000000,0.0000000000,0.0000000000,0.0000000000,0.0000000000,0.0000000000,0.0000000000,0.0000000000,0.0000000000,0.0000000000,-0.0000000000,0.0000000000,0.0000000000,-0.0000000000,0.0000000000,0.0000000000,-142.8133850098,1.8669332266,0.0000000000,0.0200462341,0.3599781990,0.0100710392,0.0000321865,0.0800223351,0.0800127983,0.0000169277,0.0100610256,0.0399682522,0.0899810791,0.0200273991,0.0200181007,0.0299749374,0.0100526810,0.0299630165,0.0000069141,262143
1777399850.5035021305,0.0277918167,0.0297967996,0.0983737335,0.3420817038,0.0081814975,0.0014131857,4.0900001526,4.0961875916,4.0929007530,0.0000000000,0.0000000000,0.0000000000,0.0000000000,-0.0067947879,-0.0016667264,0.0017869819,-0.0274145752,-0.3726735413,-0.0713441372,-0.1358210742,-0.2238328308,0.0360679664,-0.8718395755,-2.0580563685,-1.1130210417,0.0000000000,0.0000000000,0.0000000000,0.0000000000,0.0000000000,0.1364852786,0.0000000000,0.0000000000,0.0000000000,0.0000000000,0.0000000000,0.0000000000,0.0000000000,0.0000000000,0.0000000000,0.0000000000,0.0000000000,0.0000000000,-0.0000000000,0.0000000000,0.0000000000,-0.0000000000,0.0000000000,0.0000000000,-122.0422744751,4.2362117767,0.0000000000,0.0300121307,0.3699440956,0.0200369358,0.0099980831,0.0899882317,0.0899786949,0.0099828243,0.0200269222,0.0499341488,0.0000085831,0.0299932957,0.0299839973,0.0399408340,0.0200185776,0.0399289131,0.0099728107,262143
1777399850.5135645866,0.0277918167,0.0297967996,0.0983737335,0.3420817038,0.0081814975,0.0014131857,4.0900001526,4.0961875916,4.0929007530,0.0000000000,0.0000000000,0.0000000000,0.0000000000,-0.0101694148,-0.0025912267,0.0025777956,-0.0212219208,-0.3210736513,-0.0519891381,-0.1358210742,-0.2238328308,0.0360679664,-0.8718395755,-2.0580563685,-1.1130210417,0.0000000000,0.0000000000,0.0000000000,0.0000000000,0.0000000000,0.1364852786,0.0000000000,0.0000000000,0.0000000000,0.0000000000,0.0000000000,0.0000000000,0.0000000000,0.0000000000,0.0000000000,0.0000000000,0.0000000000,0.0000000000,-0.0000000000,0.0000000000,0.0000000000,-0.0000000000,0.0000000000,0.0000000000,-122.0422744751,4.2362117767,0.0000000000,0.0400745869,0.3800065517,0.0300993919,0.0200605392,0.0000333786,0.0000224113,0.0200452805,0.0300893784,0.0599966049,0.0100710392,0.0400557518,0.0400464535,0.0000152588,0.0300810337,0.0000073910,0.0200352669,262143
1777399850.5235364437,0.0273064934,0.0297245197,0.0985445455,0.3168375431,0.0109316025,0.0017464220,4.0900001526,4.0961875916,4.0929007530,0.0000000000,0.0000000000,0.0000000000,0.0000000000,-0.0101694148,-0.0025912267,0.0025777956,-0.0212219208,-0.3210736513,-0.0519891381,-0.1358210742,-0.2238328308,0.0360679664,-0.8718395755,-2.0580563685,-1.1130210417,0.0000000000,0.0000000000,0.0000000000,0.0000000000,0.0000000000,0.1364852786,0.0000000000,0.0000000000,0.0000000000,0.0000000000,0.0000000000,0.0000000000,0.0000000000,0.0000000000,0.0000000000,0.0000000000,0.0000000000,0.0000000000,-0.0000000000,0.0000000000,0.0000000000,-0.0000000000,0.0000000000,0.0000000000,-122.0422744751,4.2362117767,0.0000000000,0.0000312328,0.3899784088,0.0400712490,0.0300323963,0.0100052357,0.0099942684,0.0300171375,0.0400612354,0.0699684620,0.0200428963,0.0000157356,0.0000069141,0.0099871159,0.0400528908,0.0099792480,0.0300071239,262143
1777399850.5335228443,0.0273064934,0.0297245197,0.0985445455,0.3168375431,0.0109316025,0.0017464220,4.0900001526,4.0961875916,4.0929646492,0.0000000000,0.0000000000,0.0000000000,0.0000000000,-0.0101694148,-0.0025912267,0.0025777956,-0.0212219208,-0.3210736513,-0.0519891381,-0.1358210742,-0.2238328308,0.0360679664,-0.8718395755,-2.0580563685,-1.1130210417,0.0000000000,0.0000000000,0.0000000000,0.0000000000,0.0000000000,0.1364852786,0.0000000000,0.0000000000,0.0000000000,0.0000000000,0.0000000000,0.0000000000,0.0000000000,0.0000000000,0.0000000000,0.0000000000,0.0000000000,0.0000000000,-0.0000000000,0.0000000000,0.0000000000,-0.0000000000,0.0000000000,0.0000000000,-122.0422744751,4.2362117767,0.0000000000,0.0100176334,0.3999648094,0.0000154972,0.0400187969,0.0199916363,0.0199806690,0.0400035381,0.0500476360,0.0799548626,0.0300292969,0.0100021362,0.0099933147,0.0199735165,0.0000061989,0.0199656487,0.0399935246,262143
1777399850.5435047150,0.0273064934,0.0297245197,0.0985445455,0.3168375431,0.0109316025,0.0017464220,4.0900001526,4.0961875916,4.0929646492,0.0000000000,0.0000000000,0.0000000000,0.0000000000,-0.0101694148,-0.0025912267,0.0025777956,-0.0212219208,-0.3210736513,-0.0519891381,-0.1358210742,-0.2238328308,0.0360679664,-0.8718395755,-2.0580563685,-1.1130210417,0.0000000000,0.0000000000,0.0000000000,0.0000000000,0.0000000000,0.1364852786,0.0000000000,0.0000000000,0.0000000000,0.0000000000,0.0000000000,0.0000000000,0.0000000000,0.0000000000,0.0000000000,0.0000000000,0.0000000000,0.0000000000,-0.0000000000,0.0000000000,0.0000000000,-0.0000000000,0.0000000000,0.0000000000,-122.0422744751,4.2362117767,0.0000000000,0.0199995041,0.4099466801,0.0099973679,0.0000088215,0.0299735069,0.0299625397,0.0499854088,0.0600295067,0.0899367332,0.0400111675,0.0199840069,0.0199751854,0.0299553871,0.0099880695,0.0299475193,0.0499753952,262143
1777399850.5535528660,0.0273064934,0.0297245197,0.0985445455,0.3168375431,0.0109316025,0.0017464220,4.0900001526,4.0961875916,4.0929646492,0.0000000000,0.0000000000,0.0000000000,0.0000000000,-0.0101694148,-0.0025912267,0.0025777956,-0.0212219208,-0.3210736513,-0.0519891381,-0.1358210742,-0.2238328308,0.0360679664,-0.8718395755,-2.0580563685,-1.1130210417,0.0000000000,0.0000000000,0.0000000000,0.0000000000,0.0000000000,0.1360148340,0.0000000000,0.0000000000,0.0000000000,0.0000000000,0.0000000000,0.0000000000,0.0000000000,0.0000000000,0.0000000000,0.0000000000,0.0000000000,0.0000000000,-0.0000000000,0.0000000000,0.0000000000,-0.0000000000,0.0000000000,0.0000000000,-122.0422744751,4.2362117767,0.0000000000,0.0300476551,0.4199948311,0.0200455189,0.0100569725,0.0400216579,0.0400106907,0.0600335598,0.0700776577,0.0000104904,0.0500593185,0.0300321579,0.0300233364,0.0400035381,0.0200362206,0.0399956703,0.0600235462,262143
1777399850.5634930134,0.0273064934,0.0297245197,0.0985445455,0.3168375431,0.0109316025,0.0017464220,4.0900001526,4.0961875916,4.0929646492,0.0000000000,0.0000000000,0.0000000000,0.0000000000,-0.0101694148,-0.0025912267,0.0025777956,-0.0212219208,-0.3210736513,-0.0519891381,-0.1358210742,-0.2238328308,0.0360679664,-0.8718395755,-2.0580563685,-1.1130210417,0.0000000000,0.0000000000,0.0000000000,0.0000000000,0.0000000000,0.1360148340,0.0000000000,0.0000000000,0.0000000000,0.0000000000,0.0000000000,0.0000000000,0.0000000000,0.0000000000,0.0000000000,0.0000000000,0.0000000000,0.0000000000,-0.0000000000,0.0000000000,0.0000000000,-0.0000000000,0.0000000000,0.0000000000,-122.0422744751,4.2362117767,0.0000000000,0.0399878025,0.4299349785,0.0299856663,0.0199971199,0.0499618053,0.0499508381,0.0699737072,0.0800178051,0.0099506378,0.0599994659,0.0399723053,0.0399634838,0.0000178814,0.0299763680,0.0000076294,0.0699636936,262143
1777399850.5735294819,0.0273064934,0.0297245197,0.0985445455,0.3168375431,0.0109316025,0.0017464220,4.0900001526,4.0961875916,4.0929646492,0.0000000000,0.0000000000,0.0000000000,0.0000000000,-0.0101694148,-0.0025912267,0.0025777956,-0.0212219208,-0.3210736513,-0.0519891381,-0.1358210742,-0.2238328308,0.0360679664,-0.8718395755,-2.0580563685,-1.1130210417,0.0000000000,0.0000000000,0.0000000000,0.0000000000,0.0000000000,0.1360148340,0.0000000000,0.0000000000,0.0000000000,0.0000000000,0.0000000000,0.0000000000,0.0000000000,0.0000000000,0.0000000000,0.0000000000,0.0000000000,0.0000000000,-0.0000000000,0.0000000000,0.0000000000,-0.0000000000,0.0000000000,0.0000000000,-122.0422744751,4.2362117767,0.0000000000,0.0500242710,0.4399714470,0.0400221348,0.0300335884,0.0599982738,0.0599873066,0.0800101757,0.0000298023,0.0199871063,0.0700359344,0.0000185966,0.0000081062,0.0100543499,0.0400128365,0.0100440979,0.0800001621,262143
1777399850.5835092068,0.0267327558,0.0296533071,0.0987385586,0.2944426187,0.0136881312,0.0020299020,4.0900001526,4.0909090042,4.0929884911,0.0000000000,0.0000000000,0.0000000000,0.0000000000,-0.0101694148,-0.0025912267,0.0025777956,-0.0212219208,-0.3210736513,-0.0519891381,-0.1358210742,-0.2238328308,0.0360679664,-0.8718395755,-2.0580563685,-1.1130210417,0.0000000000,0.0000000000,0.0000000000,0.0000000000,0.0000000000,0.1360148340,0.0000000000,0.0000000000,0.0000000000,0.0000000000,0.0000000000,0.0000000000,0.0000000000,0.0000000000,0.0000000000,0.0000000000,0.0000000000,0.0000000000,-0.0000000000,0.0000000000,0.0000000000,-0.0000000000,0.0000000000,0.0000000000,-122.0422744751,4.2362117767,0.0000000000,0.0000298023,0.4499511719,0.0000109673,0.0400133133,0.0699779987,0.0699670315,0.0899899006,0.0100095272,0.0299668312,0.0800156593,0.0099983215,0.0099878311,0.0200340748,0.0000066757,0.0200238228,0.0899798870,262143
1777399850.5934846401,0.0267327558,0.0296533071,0.0987385586,0.2944426187,0.0136881312,0.0020299020,4.0900001526,4.0909090042,4.0929884911,0.0000000000,0.0000000000,0.0000000000,0.0000000000,-0.0101694148,-0.0025912267,0.0025777956,-0.0212219208,-0.3210736513,-0.0519891381,-0.1723966151,-0.0181863606,0.1971229613,-0.3659084269,2.0573250468,1.6112237406,0.0000000000,0.0000000000,0.0000000000,0.0000000000,0.0000000000,0.1360148340,0.0000000000,0.0000000000,0.0000000000,0.0000000000,0.0000000000,0.0000000000,0.0000000000,0.0000000000,0.0000000000,0.0000000000,0.0000000000,0.0000000000,-0.0000000000,0.0000000000,0.0000000000,-0.0000000000,0.0000000000,0.0000000000,-122.0422744751,4.2362117767,0.0000000000,0.0100052357,0.4599266052,0.0099864006,0.0000202656,0.0799534321,0.0799424648,0.0000071526,0.0199849606,0.0399422646,0.0899910927,0.0199737549,0.0199632645,0.0300095081,0.0099821091,0.0299992561,0.0999553204,262143
1777399850.6035175323,0.0267327558,0.0296533071,0.0987385586,0.2944426187,0.0136881312,0.0020299020,4.0900001526,4.0909090042,4.0929884911,0.0000000000,0.0000000000,0.0000000000,0.0000000000,-0.0101694148,-0.0025912267,0.0025777956,-0.0212219208,-0.3210736513,-0.0519891381,-0.1723966151,-0.0181863606,0.1971229613,-0.3659084269,2.0573250468,1.6112237406,0.0000000000,0.0000000000,0.0000000000,0.0000000000,0.0000000000,0.1360148340,0.0000000000,0.0000000000,0.0000000000,0.0000000000,0.0000000000,0.0000000000,0.0000000000,0.0000000000,0.0000000000,0.0000000000,0.0000000000,0.0000000000,-0.0000000000,0.0000000000,0.0000000000,-0.0000000000,0.0000000000,0.0000000000,-104.1056823730,6.4808545113,0.0000000000,0.0200381279,0.4699594975,0.0200192928,0.0100531578,0.0899863243,0.0899753571,0.0100400448,0.0300178528,0.0499751568,0.0000064373,0.0300066471,0.0299961567,0.0400424004,0.0200150013,0.0400321484,0.1099882126,262143
1777399850.6135520935,0.0267327558,0.0296533071,0.0987385586,0.2944426187,0.0136881312,0.0020299020,4.0900001526,4.0909090042,4.0929884911,0.0000000000,0.0000000000,0.0000000000,0.0000000000,-0.0101694148,-0.0025912267,0.0025777956,-0.0173004251,-0.2759906054,-0.0368179083,-0.1723966151,-0.0181863606,0.1971229613,-0.3659084269,2.0573250468,1.6112237406,0.0000000000,0.0000000000,0.0000000000,0.0000000000,0.0000000000,0.1360148340,0.0000000000,0.0000000000,0.0000000000,0.0000000000,0.0000000000,0.0000000000,0.0000000000,0.0000000000,0.0000000000,0.0000000000,0.0000000000,0.0000000000,-0.0000000000,0.0000000000,0.0000000000,-0.0000000000,0.0000000000,0.0000000000,-104.1056823730,6.4808545113,0.0000000000,0.0300726891,0.4799940586,0.0300538540,0.0200877190,0.1000208855,0.0000233650,0.0200746059,0.0400524139,0.0600097179,0.0100409985,0.0400412083,0.0400307178,0.0000133514,0.0300495625,0.0000085831,0.1200227737,262143
1777399850.6235415936,0.0267327558,0.0296533071,0.0987385586,0.2944426187,0.0136881312,0.0020299020,4.0900001526,4.0909090042,4.0929884911,0.0000000000,0.0000000000,0.0000000000,0.0000000000,-0.0144624161,-0.0025993998,0.0041366764,-0.0173004251,-0.2759906054,-0.0368179083,-0.1723966151,-0.0181863606,0.1971229613,-0.3659084269,2.0573250468,1.6112237406,0.0000000000,0.0000000000,0.0000000000,0.0000000000,0.0000000000,0.1360148340,0.0000000000,0.0000000000,0.0000000000,0.0000000000,0.0000000000,0.0000000000,0.0000000000,0.0000000000,0.0000000000,0.0000000000,0.0000000000,0.0000000000,-0.0000000000,0.0000000000,0.0000000000,-0.0000000000,0.0000000000,0.0000000000,-104.1056823730,6.4808545113,0.0000000000,0.0400621891,0.4899835587,0.0400433540,0.0300772190,0.0000274181,0.0100128651,0.0300641060,0.0500419140,0.0699992180,0.0200304985,0.0000169277,0.0000104904,0.0100028515,0.0400390625,0.0099980831,0.1300122738,262143
1777399850.6335697174,0.0297634173,0.0319263339,0.1000446528,0.2692918579,0.0164551471,0.0022291551,4.0900001526,4.0961875916,4.0929980278,0.0000000000,0.0000000000,0.0000000000,0.0000000000,-0.0144624161,-0.0025993998,0.0041366764,-0.0173004251,-0.2759906054,-0.0368179083,-0.1723966151,-0.0181863606,0.1971229613,-0.3659084269,2.0573250468,1.6112237406,0.0000000000,0.0000000000,0.0000000000,0.0000000000,0.0000000000,0.1360148340,0.0000000000,0.0000000000,0.0000000000,0.0000000000,0.0000000000,0.0000000000,0.0000000000,0.0000000000,0.0000000000,0.0000000000,0.0000000000,0.0000000000,-0.0000000000,0.0000000000,0.0000000000,-0.0000000000,0.0000000000,0.0000000000,-104.1056823730,6.4808545113,0.0000000000,0.0000424385,0.5000116825,0.0000176430,0.0401053429,0.0100555420,0.0200409889,0.0400922298,0.0600700378,0.0800273418,0.0300586224,0.0100450516,0.0100386143,0.0200309753,0.0000095367,0.0200262070,0.1400403976,262143
1777399850.6435108185,0.0297634173,0.0319263339,0.1000446528,0.2692918579,0.0164551471,0.0022291551,4.0900001526,4.0961875916,4.0929980278,0.0000000000,0.0000000000,0.0000000000,0.0000000000,-0.0144624161,-0.0025993998,0.0041366764,-0.0173004251,-0.2759906054,-0.0368179083,-0.1723966151,-0.0181863606,0.1971229613,-0.3659084269,2.0573250468,1.6112237406,0.0000000000,0.0000000000,0.0000000000,0.0000000000,0.0000000000,0.1360148340,0.0000000000,0.0000000000,0.0000000000,0.0000000000,0.0000000000,0.0000000000,0.0000000000,0.0000000000,0.0000000000,0.0000000000,0.0000000000,0.0000000000,-0.0000000000,0.0000000000,0.0000000000,-0.0000000000,0.0000000000,0.0000000000,-104.1056823730,6.4808545113,0.0000000000,0.0099835396,0.5099527836,0.0099587440,0.0000095367,0.0199966431,0.0299820900,0.0500333309,0.0700111389,0.0899684429,0.0399997234,0.0199861526,0.0199797153,0.0299720764,0.0099506378,0.0299673080,0.1499814987,262143
1777399850.6536159515,0.0297634173,0.0319263339,0.1000446528,0.2692918579,0.0164551471,0.0022291551,4.0900001526,4.0961875916,4.0929980278,0.0000000000,0.0000000000,0.0000000000,0.0000000000,-0.0144624161,-0.0025993998,0.0041366764,-0.0173004251,-0.2759906054,-0.0368179083,-0.1723966151,-0.0181863606,0.1971229613,-0.3659084269,2.0573250468,1.6112237406,0.0000000000,0.0000000000,0.0000000000,0.0000000000,0.0000000000,0.1394337267,0.0000000000,0.0000000000,0.0000000000,0.0000000000,0.0000000000,0.0000000000,0.0000000000,0.0000000000,0.0000000000,0.0000000000,0.0000000000,0.0000000000,-0.0000000000,0.0000000000,0.0000000000,-0.0000000000,0.0000000000,0.0000000000,-104.1056823730,6.4808545113,0.0000000000,0.0200886726,0.5200579166,0.0200638771,0.0101146698,0.0301017761,0.0400872231,0.0601384640,0.0801162720,0.0000147820,0.0501048565,0.0300912857,0.0300848484,0.0400772095,0.0200557709,0.0400724411,0.1600866318,262143
1777399850.6635661125,0.0297634173,0.0319263339,0.1000446528,0.2692918579,0.0164551471,0.0022291551,4.0900001526,4.0961875916,4.0929980278,0.0000000000,0.0000000000,0.0000000000,0.0000000000,-0.0144624161,-0.0025993998,0.0041366764,-0.0173004251,-0.2759906054,-0.0368179083,-0.1723966151,-0.0181863606,0.1971229613,-0.3659084269,2.0573250468,1.6112237406,0.0000000000,0.0000000000,0.0000000000,0.0000000000,0.0000000000,0.1394337267,0.0000000000,0.0000000000,0.0000000000,0.0000000000,0.0000000000,0.0000000000,0.0000000000,0.0000000000,0.0000000000,0.0000000000,0.0000000000,0.0000000000,-0.0000000000,0.0000000000,0.0000000000,-0.0000000000,0.0000000000,0.0000000000,-104.1056823730,6.4808545113,0.0000000000,0.0300388336,0.5300080776,0.0300140381,0.0200648308,0.0400519371,0.0500373840,0.0700886250,0.0000245571,0.0099649429,0.0600550175,0.0400414467,0.0400350094,0.0000150204,0.0300059319,0.0000095367,0.1700367928,262143
1777399850.6735672951,0.0296733379,0.0322678611,0.1004943699,0.2497620917,0.0192222340,0.0024131229,4.0900001526,4.0961875916,4.0929980278,0.0000000000,0.0000000000,0.0000000000,0.0000000000,-0.0144624161,-0.0025993998,0.0041366764,-0.0173004251,-0.2759906054,-0.0368179083,-0.1723966151,-0.0181863606,0.1971229613,-0.3659084269,2.0573250468,1.6112237406,0.0000000000,0.0000000000,0.0000000000,0.0000000000,0.0000000000,0.1394337267,0.0000000000,0.0000000000,0.0000000000,0.0000000000,0.0000000000,0.0000000000,0.0000000000,0.0000000000,0.0000000000,0.0000000000,0.0000000000,0.0000000000,-0.0000000000,0.0000000000,0.0000000000,-0.0000000000,0.0000000000,0.0000000000,-104.1056823730,6.4808545113,0.0000000000,0.0000338554,0.5400092602,0.0400152206,0.0300660133,0.0500531197,0.0600385666,0.0800898075,0.0100257397,0.0199661255,0.0700562000,0.0000159740,0.0000092983,0.0100162029,0.0400071144,0.0100107193,0.1800379753,262143
1777399850.6835386753,0.0296733379,0.0322678611,0.1004943699,0.2497620917,0.0192222340,0.0024131229,4.0900001526,4.0909090042,4.0930714607,0.0000000000,0.0000000000,0.0000000000,0.0000000000,-0.0144624161,-0.0025993998,0.0041366764,-0.0173004251,-0.2759906054,-0.0368179083,-0.1723966151,-0.0181863606,0.1971229613,-0.3659084269,2.0573250468,1.6112237406,0.0000000000,0.0000000000,0.0000000000,0.0000000000,0.0000000000,0.1394337267,0.0000000000,0.0000000000,0.0000000000,0.0000000000,0.0000000000,0.0000000000,0.0000000000,0.0000000000,0.0000000000,0.0000000000,0.0000000000,0.0000000000,-0.0000000000,0.0000000000,0.0000000000,-0.0000000000,0.0000000000,0.0000000000,-104.1056823730,6.4808545113,0.0000000000,0.0100052357,0.5499806404,0.0000200272,0.0400373936,0.0600244999,0.0700099468,0.0900611877,0.0199971199,0.0299375057,0.0800275803,0.0099873543,0.0099806786,0.0199875832,0.0000097752,0.0199820995,0.1900093555,262143
1777399850.6936140060,0.0296733379,0.0322678611,0.1004943699,0.2497620917,0.0192222340,0.0024131229,4.0900001526,4.0909090042,4.0930714607,0.0000000000,0.0000000000,0.0000000000,0.0000000000,-0.0144624161,-0.0025993998,0.0041366764,-0.0173004251,-0.2759906054,-0.0368179083,0.2458512336,-0.0997705460,-0.0715351626,4.1776417784,-0.8148983963,-2.6834744181,0.0000000000,0.0000000000,0.0000000000,0.0000000000,0.0000000000,0.1394337267,0.0000000000,0.0000000000,0.0000000000,0.0000000000,0.0000000000,0.0000000000,0.0000000000,0.0000000000,0.0000000000,0.0000000000,0.0000000000,0.0000000000,-0.0000000000,0.0000000000,0.0000000000,-0.0000000000,0.0000000000,0.0000000000,-104.1056823730,6.4808545113,0.0000000000,0.0200805664,0.5600559711,0.0100953579,0.0000452995,0.0700998306,0.0800852776,0.0000207424,0.0300724506,0.0400128365,0.0901029110,0.0200626850,0.0200560093,0.0300629139,0.0100851059,0.0300574303,0.0000112057,262143
1777399850.7035651207,0.0296733379,0.0322678611,0.1004943699,0.2497620917,0.0192222340,0.0024131229,4.0900001526,4.0909090042,4.0930714607,0.0000000000,0.0000000000,0.0000000000,0.0000000000,-0.0144624161,-0.0025993998,0.0041366764,-0.0173004251,-0.2759906054,-0.0368179083,0.2458512336,-0.0997705460,-0.0715351626,4.1776417784,-0.8148983963,-2.6834744181,0.0000000000,0.0000000000,0.0000000000,0.0000000000,0.0000000000,0.1394337267,0.0000000000,0.0000000000,0.0000000000,0.0000000000,0.0000000000,0.0000000000,0.0000000000,0.0000000000,0.0000000000,0.0000000000,0.0000000000,0.0000000000,-0.0000000000,0.0000000000,0.0000000000,-0.0000000000,0.0000000000,0.0000000000,-88.5235290527,8.5432806015,0.0000000000,0.0300316811,0.5700070858,0.0200464725,0.0099964142,0.0800509453,0.0900363922,0.0099718571,0.0400235653,0.0499639511,0.0000162125,0.0300137997,0.0300071239,0.0400140285,0.0200362206,0.0400085449,0.0099623203,262143
1777399850.7135825157,0.0296733379,0.0322678611,0.1004943699,0.2497620917,0.0192222340,0.0024131229,4.0900001526,4.0909090042,4.0930714607,0.0000000000,0.0000000000,0.0000000000,0.0000000000,-0.0067252927,-0.0021330526,-0.0069058700,-0.0124997515,-0.2340261489,-0.0251303911,0.2458512336,-0.0997705460,-0.0715351626,4.1776417784,-0.8148983963,-2.6834744181,0.0000000000,0.0000000000,0.0000000000,0.0000000000,0.0000000000,0.1394337267,0.0000000000,0.0000000000,0.0000000000,0.0000000000,0.0000000000,0.0000000000,0.0000000000,0.0000000000,0.0000000000,0.0000000000,0.0000000000,0.0000000000,-0.0000000000,0.0000000000,0.0000000000,-0.0000000000,0.0000000000,0.0000000000,-88.5235290527,8.5432806015,0.0000000000,0.0400490761,0.5800244808,0.0300638676,0.0200138092,0.0000333786,0.0000233650,0.0199892521,0.0500409603,0.0599813461,0.0100336075,0.0400311947,0.0400245190,0.0000174046,0.0300536156,0.0000112057,0.0199797153,262143
1777399850.7236235142,0.0288796835,0.0300164521,0.0979600698,0.2302462229,0.0192448634,0.0022254362,4.0900001526,4.0909090042,4.0930714607,0.0000000000,0.0000000000,0.0000000000,0.0000000000,-0.0067252927,-0.0021330526,-0.0069058700,-0.0124997515,-0.2340261489,-0.0251303911,0.2458512336,-0.0997705460,-0.0715351626,4.1776417784,-0.8148983963,-2.6834744181,0.0000000000,0.0000000000,0.0000000000,0.0000000000,0.0000000000,0.1394337267,0.0000000000,0.0000000000,0.0000000000,0.0000000000,0.0000000000,0.0000000000,0.0000000000,0.0000000000,0.0000000000,0.0000000000,0.0000000000,0.0000000000,-0.0000000000,0.0000000000,0.0000000000,-0.0000000000,0.0000000000,0.0000000000,-88.5235290527,8.5432806015,0.0000000000,0.0000510216,0.5900654793,0.0401048660,0.0300548077,0.0100743771,0.0100643635,0.0300302505,0.0600819588,0.0700223446,0.0200746059,0.0000224113,0.0000135899,0.0100584030,0.0400946140,0.0100522041,0.0300207138,262143
1777399850.7335944176,0.0288796835,0.0300164521,0.0979600698,0.2302462229,0.0192448634,0.0022254362,4.0900001526,4.0909090042,4.0930213928,0.0000000000,0.0000000000,0.0000000000,0.0000000000,-0.0067252927,-0.0021330526,-0.0069058700,-0.0124997515,-0.2340261489,-0.0251303911,0.2458512336,-0.0997705460,-0.0715351626,4.1776417784,-0.8148983963,-2.6834744181,0.0000000000,0.0000000000,0.0000000000,0.0000000000,0.0000000000,0.1394337267,0.0000000000,0.0000000000,0.0000000000,0.0000000000,0.0000000000,0.0000000000,0.0000000000,0.0000000000,0.0000000000,0.0000000000,0.0000000000,0.0000000000,-0.0000000000,0.0000000000,0.0000000000,-0.0000000000,0.0000000000,0.0000000000,-88.5235290527,8.5432806015,0.0000000000,0.0100219250,0.6000363827,0.0000255108,0.0400257111,0.0200452805,0.0200352669,0.0400011539,0.0700528622,0.0799932480,0.0300455093,0.0099933147,0.0099844933,0.0200293064,0.0000128746,0.0200231075,0.0399916172,262143
1777399850.7436141968,0.0288796835,0.0300164521,0.0979600698,0.2302462229,0.0192448634,0.0022254362,4.0900001526,4.0909090042,4.0930213928,0.0000000000,0.0000000000,0.0000000000,0.0000000000,-0.0067252927,-0.0021330526,-0.0069058700,-0.0124997515,-0.2340261489,-0.0251303911,0.2458512336,-0.0997705460,-0.0715351626,4.1776417784,-0.8148983963,-2.6834744181,0.0000000000,0.0000000000,0.0000000000,0.0000000000,0.0000000000,0.1394337267,0.0000000000,0.0000000000,0.0000000000,0.0000000000,0.0000000000,0.0000000000,0.0000000000,0.0000000000,0.0000000000,0.0000000000,0.0000000000,0.0000000000,-0.0000000000,0.0000000000,0.0000000000,-0.0000000000,0.0000000000,0.0000000000,-88.5235290527,8.5432806015,0.0000000000,0.0200417042,0.6100561619,0.0100452900,0.0000207424,0.0300650597,0.0300550461,0.0500209332,0.0800726414,0.0900130272,0.0400652885,0.0200130939,0.0200042725,0.0300490856,0.0100326538,0.0300428867,0.0500113964,262143
1777399850.7536098957,0.0288796835,0.0300164521,0.0979600698,0.2302462229,0.0192448634,0.0022254362,4.0900001526,4.0909090042,4.0930213928,0.0000000000,0.0000000000,0.0000000000,0.0000000000,-0.0067252927,-0.0021330526,-0.0069058700,-0.0124997515,-0.2340261489,-0.0251303911,0.2458512336,-0.0997705460,-0.0715351626,4.1776417784,-0.8148983963,-2.6834744181,0.0000000000,0.0000000000,0.0000000000,0.0000000000,0.0000000000,0.1360820830,0.0000000000,0.0000000000,0.0000000000,0.0000000000,0.0000000000,0.0000000000,0.0000000000,0.0000000000,0.0000000000,0.0000000000,0.0000000000,0.0000000000,-0.0000000000,0.0000000000,0.0000000000,-0.0000000000,0.0000000000,0.0000000000,-88.5235290527,8.5432806015,0.0000000000,0.0300374031,0.6200518608,0.0200409889,0.0100164413,0.0400607586,0.0400507450,0.0600166321,0.0000243187,0.0000126362,0.0500609875,0.0300087929,0.0299999714,0.0400447845,0.0200283527,0.0400385857,0.0600070953,262143
1777399850.7635872364,0.0288796835,0.0300164521,0.0979600698,0.2302462229,0.0192448634,0.0022254362,4.0900001526,4.0909090042,4.0930213928,0.0000000000,0.0000000000,0.0000000000,0.0000000000,-0.0067252927,-0.0021330526,-0.0069058700,-0.0124997515,-0.2340261489,-0.0251303911,0.2458512336,-0.0997705460,-0.0715351626,4.1776417784,-0.8148983963,-2.6834744181,0.0000000000,0.0000000000,0.0000000000,0.0000000000,0.0000000000,0.1360820830,0.0000000000,0.0000000000,0.0000000000,0.0000000000,0.0000000000,0.0000000000,0.0000000000,0.0000000000,0.0000000000,0.0000000000,0.0000000000,0.0000000000,-0.0000000000,0.0000000000,0.0000000000,-0.0000000000,0.0000000000,0.0000000000,-88.5235290527,8.5432806015,0.0000000000,0.0400147438,0.6300292015,0.0300183296,0.0199937820,0.0500380993,0.0500280857,0.0699939728,0.0100016594,0.0099899769,0.0600383282,0.0399861336,0.0399773121,0.0000245571,0.0300056934,0.0000121593,0.0699844360,262143
1777399850.7735986710,0.0284930542,0.0298117921,0.0976804644,0.2107613999,0.0220179682,0.0023289892,4.0900001526,4.0909090042,4.0930213928,0.0000000000,0.0000000000,0.0000000000,0.0000000000,-0.0067252927,-0.0021330526,-0.0069058700,-0.0124997515,-0.2340261489,-0.0251303911,0.2458512336,-0.0997705460,-0.0715351626,4.1776417784,-0.8148983963,-2.6834744181,0.0000000000,0.0000000000,0.0000000000,0.0000000000,0.0000000000,0.1360820830,0.0000000000,0.0000000000,0.0000000000,0.0000000000,0.0000000000,0.0000000000,0.0000000000,0.0000000000,0.0000000000,0.0000000000,0.0000000000,0.0000000000,-0.0000000000,0.0000000000,0.0000000000,-0.0000000000,0.0000000000,0.0000000000,-88.5235290527,8.5432806015,0.0000000000,0.0000438690,0.6400406361,0.0400297642,0.0300052166,0.0600495338,0.0600395203,0.0800054073,0.0200130939,0.0200014114,0.0700497627,0.0000202656,0.0000116825,0.0100359917,0.0400171280,0.0100235939,0.0799958706,262143
1777399850.7836270332,0.0284930542,0.0298117921,0.0976804644,0.2107613999,0.0220179682,0.0023289892,4.0900001526,4.0909090042,4.0928883553,0.0000000000,0.0000000000,0.0000000000,0.0000000000,-0.0067252927,-0.0021330526,-0.0069058700,-0.0124997515,-0.2340261489,-0.0251303911,0.2458512336,-0.0997705460,-0.0715351626,4.1776417784,-0.8148983963,-2.6834744181,0.0000000000,0.0000000000,0.0000000000,0.0000000000,0.0000000000,0.1360820830,0.0000000000,0.0000000000,0.0000000000,0.0000000000,0.0000000000,0.0000000000,0.0000000000,0.0000000000,0.0000000000,0.0000000000,0.0000000000,0.0000000000,-0.0000000000,0.0000000000,0.0000000000,-0.0000000000,0.0000000000,0.0000000000,-88.5235290527,8.5432806015,0.0000000000,0.0100722313,0.6500689983,0.0000278950,0.0400335789,0.0700778961,0.0700678825,0.0900337696,0.0300414562,0.0300297737,0.0800781250,0.0100486279,0.0100400448,0.0200643539,0.0000140667,0.0200519562,0.0900242329,262143
1777399850.7936012745,0.0284930542,0.0298117921,0.0976804644,0.2107613999,0.0220179682,0.0023289892,4.0900001526,4.0909090042,4.0928883553,0.0000000000,0.0000000000,0.0000000000,0.0000000000,-0.0067252927,-0.0021330526,-0.0069058700,-0.0124997515,-0.2340261489,-0.0251303911,0.1842190325,-0.2026543170,0.0891766623,-0.6163710935,-1.0289196453,1.6072462369,0.0000000000,0.0000000000,0.0000000000,0.0000000000,0.0000000000,0.1360820830,0.0000000000,0.0000000000,0.0000000000,0.0000000000,0.0000000000,0.0000000000,0.0000000000,0.0000000000,0.0000000000,0.0000000000,0.0000000000,0.0000000000,-0.0000000000,0.0000000000,0.0000000000,-0.0000000000,0.0000000000,0.0000000000,-88.5235290527,8.5432806015,0.0000000000,0.0200464725,0.6600432396,0.0100021362,0.0000393391,0.0800521374,0.0800421238,0.0000159740,0.0400156975,0.0400040150,0.0900523663,0.0200228691,0.0200142860,0.0300385952,0.0099883080,0.0300261974,0.0999984741,262143
1777399850.8035986423,0.0284930542,0.0298117921,0.0976804644,0.2107613999,0.0220179682,0.0023289892,4.0900001526,4.0909090042,4.0928883553,0.0000000000,0.0000000000,0.0000000000,0.0000000000,-0.0067252927,-0.0021330526,-0.0069058700,-0.0124997515,-0.2340261489,-0.0251303911,0.1842190325,-0.2026543170,0.0891766623,-0.6163710935,-1.0289196453,1.6072462369,0.0000000000,0.0000000000,0.0000000000,0.0000000000,0.0000000000,0.1360820830,0.0000000000,0.0000000000,0.0000000000,0.0000000000,0.0000000000,0.0000000000,0.0000000000,0.0000000000,0.0000000000,0.0000000000,0.0000000000,0.0000000000,-0.0000000000,0.0000000000,0.0000000000,-0.0000000000,0.0000000000,0.0000000000,-76.2132415771,10.1950454712,0.0000000000,0.0300438404,0.6700406075,0.0199995041,0.0100367069,0.0900495052,0.0900394917,0.0100133419,0.0500130653,0.0500013828,0.0000190735,0.0300202370,0.0300116539,0.0400359631,0.0199856758,0.0400235653,0.1099958420,262143
1777399850.8135976791,0.0284930542,0.0298117921,0.0976804644,0.2107613999,0.0220179682,0.0023289892,4.0900001526,4.0909090042,4.0928883553,0.0000000000,0.0000000000,0.0000000000,0.0000000000,-0.0069679045,-0.0030091996,-0.0024793085,-0.0084330626,-0.1982339919,-0.0178343058,0.1842190325,-0.2026543170,0.0891766623,-0.6163710935,-1.0289196453,1.6072462369,0.0000000000,0.0000000000,0.0000000000,0.0000000000,0.0000000000,0.1360820830,0.0000000000,0.0000000000,0.0000000000,0.0000000000,0.0000000000,0.0000000000,0.0000000000,0.0000000000,0.0000000000,0.0000000000,0.0000000000,0.0000000000,-0.0000000000,0.0000000000,0.0000000000,-0.0000000000,0.0000000000,0.0000000000,-76.2132415771,10.1950454712,0.0000000000,0.0400428772,0.6800396442,0.0299985409,0.0200357437,0.0000381470,0.0000264645,0.0200123787,0.0600121021,0.0600004196,0.0100181103,0.0400192738,0.0400106907,0.0000195503,0.0299847126,0.0000121593,0.1199948788,262143
1777399850.8236629963,0.0286005456,0.0298189912,0.0978456885,0.1940771278,0.0247913430,0.0024134184,4.0900001526,4.0909090042,4.0928883553,0.0000000000,0.0000000000,0.0000000000,0.0000000000,-0.0069679045,-0.0030091996,-0.0024793085,-0.0084330626,-0.1982339919,-0.0178343058,0.1842190325,-0.2026543170,0.0891766623,-0.6163710935,-1.0289196453,1.6072462369,0.0000000000,0.0000000000,0.0000000000,0.0000000000,0.0000000000,0.1360820830,0.0000000000,0.0000000000,0.0000000000,0.0000000000,0.0000000000,0.0000000000,0.0000000000,0.0000000000,0.0000000000,0.0000000000,0.0000000000,0.0000000000,-0.0000000000,0.0000000000,0.0000000000,-0.0000000000,0.0000000000,0.0000000000,-76.2132415771,10.1950454712,0.0000000000,0.0000579357,0.6901049614,0.0400638580,0.0301010609,0.0101034641,0.0100917816,0.0300776958,0.0700774193,0.0700657368,0.0200834274,0.0000257492,0.0000157356,0.0100848675,0.0400500298,0.0100774765,0.1300601959,262143
1777399850.8336384296,0.0286005456,0.0298189912,0.0978456885,0.1940771278,0.0247913430,0.0024134184,4.0900001526,4.0909090042,4.0929036140,0.0000000000,0.0000000000,0.0000000000,0.0000000000,-0.0069679045,-0.0030091996,-0.0024793085,-0.0084330626,-0.1982339919,-0.0178343058,0.1842190325,-0.2026543170,0.0891766623,-0.6163710935,-1.0289196453,1.6072462369,0.0000000000,0.0000000000,0.0000000000,0.0000000000,0.0000000000,0.1360820830,0.0000000000,0.0000000000,0.0000000000,0.0000000000,0.0000000000,0.0000000000,0.0000000000,0.0000000000,0.0000000000,0.0000000000,0.0000000000,0.0000000000,-0.0000000000,0.0000000000,0.0000000000,-0.0000000000,0.0000000000,0.0000000000,-76.2132415771,10.1950454712,0.0000000000,0.0100333691,0.7000803947,0.0000302792,0.0400764942,0.0200788975,0.0200672150,0.0400531292,0.0800528526,0.0800411701,0.0300588608,0.0100011826,0.0099911690,0.0200603008,0.0000164509,0.0200529099,0.1400356293,262143
1777399850.8436050415,0.0286005456,0.0298189912,0.0978456885,0.1940771278,0.0247913430,0.0024134184,4.0900001526,4.0909090042,4.0929036140,0.0000000000,0.0000000000,0.0000000000,0.0000000000,-0.0069679045,-0.0030091996,-0.0024793085,-0.0084330626,-0.1982339919,-0.0178343058,0.1842190325,-0.2026543170,0.0891766623,-0.6163710935,-1.0289196453,1.6072462369,0.0000000000,0.0000000000,0.0000000000,0.0000000000,0.0000000000,0.1360820830,0.0000000000,0.0000000000,0.0000000000,0.0000000000,0.0000000000,0.0000000000,0.0000000000,0.0000000000,0.0000000000,0.0000000000,0.0000000000,0.0000000000,-0.0000000000,0.0000000000,0.0000000000,-0.0000000000,0.0000000000,0.0000000000,-76.2132415771,10.1950454712,0.0000000000,0.0199999809,0.7100470066,0.0099968910,0.0000441074,0.0300455093,0.0300338268,0.0500197411,0.0000164509,0.0900077820,0.0400254726,0.0199677944,0.0199577808,0.0300269127,0.0099830627,0.0300195217,0.1500022411,262143
1777399850.8536102772,0.0286005456,0.0298189912,0.0978456885,0.1940771278,0.0247913430,0.0024134184,4.0900001526,4.0909090042,4.0929036140,0.0000000000,0.0000000000,0.0000000000,0.0000000000,-0.0069679045,-0.0030091996,-0.0024793085,-0.0084330626,-0.1982339919,-0.0178343058,0.1842190325,-0.2026543170,0.0891766623,-0.6163710935,-1.0289196453,1.6072462369,0.0000000000,0.0000000000,0.0000000000,0.0000000000,0.0000000000,0.1393656284,0.0000000000,0.0000000000,0.0000000000,0.0000000000,0.0000000000,0.0000000000,0.0000000000,0.0000000000,0.0000000000,0.0000000000,0.0000000000,0.0000000000,-0.0000000000,0.0000000000,0.0000000000,-0.0000000000,0.0000000000,0.0000000000,-76.2132415771,10.1950454712,0.0000000000,0.0300052166,0.7200522423,0.0200021267,0.0100493431,0.0400507450,0.0400390625,0.0600249767,0.0100216866,0.0000197887,0.0500307083,0.0299730301,0.0299630165,0.0400321484,0.0199882984,0.0400247574,0.1600074768,262143
1777399850.8635623455,0.0286005456,0.0298189912,0.0978456885,0.1940771278,0.0247913430,0.0024134184,4.0900001526,4.0909090042,4.0929036140,0.0000000000,0.0000000000,0.0000000000,0.0000000000,-0.0069679045,-0.0030091996,-0.0024793085,-0.0084330626,-0.1982339919,-0.0178343058,0.1842190325,-0.2026543170,0.0891766623,-0.6163710935,-1.0289196453,1.6072462369,0.0000000000,0.0000000000,0.0000000000,0.0000000000,0.0000000000,0.1393656284,0.0000000000,0.0000000000,0.0000000000,0.0000000000,0.0000000000,0.0000000000,0.0000000000,0.0000000000,0.0000000000,0.0000000000,0.0000000000,0.0000000000,-0.0000000000,0.0000000000,0.0000000000,-0.0000000000,0.0000000000,0.0000000000,-76.2132415771,10.1950454712,0.0000000000,0.0399572849,0.7300043106,0.0299541950,0.0200014114,0.0500028133,0.0499911308,0.0699770451,0.0199737549,0.0099718571,0.0599827766,0.0399250984,0.0399150848,0.0000240803,0.0299403667,0.0000121593,0.1699595451,262143
1777399850.8737306595,0.0281901881,0.0296162330,0.0977662280,0.1801852405,0.0275640654,0.0024902159,4.0900001526,4.0909090042,4.0929036140,0.0000000000,0.0000000000,0.0000000000,0.0000000000,-0.0069679045,-0.0030091996,-0.0024793085,-0.0084330626,-0.1982339919,-0.0178343058,0.1842190325,-0.2026543170,0.0891766623,-0.6163710935,-1.0289196453,1.6072462369,0.0000000000,0.0000000000,0.0000000000,0.0000000000,0.0000000000,0.1393656284,0.0000000000,0.0000000000,0.0000000000,0.0000000000,0.0000000000,0.0000000000,0.0000000000,0.0000000000,0.0000000000,0.0000000000,0.0000000000,0.0000000000,-0.0000000000,0.0000000000,0.0000000000,-0.0000000000,0.0000000000,0.0000000000,-76.2132415771,10.1950454712,0.0000000000,0.0000660419,0.7401726246,0.0401225090,0.0301697254,0.0601711273,0.0601594448,0.0801453590,0.0301420689,0.0201401711,0.0701510906,0.0000314713,0.0000185966,0.0101923943,0.0401086807,0.0101804733,0.1801278591,262143
1777399850.8836133480,0.0281901881,0.0296162330,0.0977662280,0.1801852405,0.0275640654,0.0024902159,4.0900001526,4.0961875916,4.0927777290,0.0000000000,0.0000000000,0.0000000000,0.0000000000,-0.0069679045,-0.0030091996,-0.0024793085,-0.0084330626,-0.1982339919,-0.0178343058,0.1842190325,-0.2026543170,0.0891766623,-0.6163710935,-1.0289196453,1.6072462369,0.0000000000,0.0000000000,0.0000000000,0.0000000000,0.0000000000,0.1393656284,0.0000000000,0.0000000000,0.0000000000,0.0000000000,0.0000000000,0.0000000000,0.0000000000,0.0000000000,0.0000000000,0.0000000000,0.0000000000,0.0000000000,-0.0000000000,0.0000000000,0.0000000000,-0.0000000000,0.0000000000,0.0000000000,-76.2132415771,10.1950454712,0.0000000000,0.0099487305,0.7500553131,0.0000317097,0.0400524139,0.0700538158,0.0700421333,0.0900280476,0.0400247574,0.0300228596,0.0800337791,0.0099141598,0.0099012852,0.0200750828,0.0000159740,0.0200631618,0.1900105476,262143
1777399850.8936123848,0.0281901881,0.0296162330,0.0977662280,0.1801852405,0.0275640654,0.0024902159,4.0900001526,4.0961875916,4.0927777290,0.0000000000,0.0000000000,0.0000000000,0.0000000000,-0.0069679045,-0.0030091996,-0.0024793085,-0.0084330626,-0.1982339919,-0.0178343058,0.2049221843,-0.0779586583,0.0598864183,0.2070376391,1.2469934528,-0.2929110994,0.0000000000,0.0000000000,0.0000000000,0.0000000000,0.0000000000,0.1393656284,0.0000000000,0.0000000000,0.0000000000,0.0000000000,0.0000000000,0.0000000000,0.0000000000,0.0000000000,0.0000000000,0.0000000000,0.0000000000,0.0000000000,-0.0000000000,0.0000000000,0.0000000000,-0.0000000000,0.0000000000,0.0000000000,-76.2132415771,10.1950454712,0.0000000000,0.0199477673,0.7600543499,0.0100307465,0.0000591278,0.0800528526,0.0800411701,0.0000300407,0.0500237942,0.0400218964,0.0900328159,0.0199131966,0.0199003220,0.0300741196,0.0100150108,0.0300621986,0.0000162125,262143
1777399850.9036114216,0.0281901881,0.0296162330,0.0977662280,0.1801852405,0.0275640654,0.0024902159,4.0900001526,4.0961875916,4.0927777290,0.0000000000,0.0000000000,0.0000000000,0.0000000000,-0.0069679045,-0.0030091996,-0.0024793085,-0.0084330626,-0.1982339919,-0.0178343058,0.2049221843,-0.0779586583,0.0598864183,0.2070376391,1.2469934528,-0.2929110994,0.0000000000,0.0000000000,0.0000000000,0.0000000000,0.0000000000,0.1393656284,0.0000000000,0.0000000000,0.0000000000,0.0000000000,0.0000000000,0.0000000000,0.0000000000,0.0000000000,0.0000000000,0.0000000000,0.0000000000,0.0000000000,-0.0000000000,0.0000000000,0.0000000000,-0.0000000000,0.0000000000,0.0000000000,-64.4399032593,11.9073553085,0.0000000000,0.0299468040,0.7700533867,0.0200297832,0.0100581646,0.0900518894,0.0900402069,0.0100290775,0.0600228310,0.0500209332,0.0000238419,0.0299122334,0.0298993587,0.0400731564,0.0200140476,0.0400612354,0.0100152493,262143
1777399850.9136409760,0.0281901881,0.0296162330,0.0977662280,0.1801852405,0.0275640654,0.0024902159,4.0900001526,4.0961875916,4.0927777290,0.0000000000,0.0000000000,0.0000000000,0.0000000000,-0.0100476108,-0.0043579210,-0.0011651180,-0.0027252806,-0.1689522415,-0.0104430914,0.2049221843,-0.0779586583,0.0598864183,0.2070376391,1.2469934528,-0.2929110994,0.0000000000,0.0000000000,0.0000000000,0.0000000000,0.0000000000,0.1393656284,0.0000000000,0.0000000000,0.0000000000,0.0000000000,0.0000000000,0.0000000000,0.0000000000,0.0000000000,0.0000000000,0.0000000000,0.0000000000,0.0000000000,-0.0000000000,0.0000000000,0.0000000000,-0.0000000000,0.0000000000,0.0000000000,-64.4399032593,11.9073553085,0.0000000000,0.0399763584,0.7800829411,0.0300593376,0.0200877190,0.0000596046,0.0000433922,0.0200586319,0.0700523853,0.0600504875,0.0100533962,0.0399417877,0.0399289131,0.0000338554,0.0300436020,0.0000200272,0.0200448036,262143
1777399850.9236564636,0.0281901881,0.0296162330,0.0977662280,0.1801852405,0.0275640654,0.0024902159,4.0900001526,4.0961875916,4.0927777290,0.0000000000,0.0000000000,0.0000000000,0.0000000000,-0.0100476108,-0.0043579210,-0.0011651180,-0.0027252806,-0.1689522415,-0.0104430914,0.2049221843,-0.0779586583,0.0598864183,0.2070376391,1.2469934528,-0.2929110994,0.0000000000,0.0000000000,0.0000000000,0.0000000000,0.0000000000,0.1393656284,0.0000000000,0.0000000000,0.0000000000,0.0000000000,0.0000000000,0.0000000000,0.0000000000,0.0000000000,0.0000000000,0.0000000000,0.0000000000,0.0000000000,-0.0000000000,0.0000000000,0.0000000000,-0.0000000000,0.0000000000,0.0000000000,-64.4399032593,11.9073553085,0.0000000000,0.0499918461,0.7900984287,0.0400748253,0.0301032066,0.0100750923,0.0100588799,0.0300741196,0.0800678730,0.0700659752,0.0200688839,0.0000345707,0.0000181198,0.0100493431,0.0400590897,0.0100355148,0.0300602913,262143
1777399850.9336512089,0.0286621340,0.0298424792,0.0979637504,0.1635137299,0.0275838617,0.0022603505,4.0900001526,4.0909090042,4.0927715302,0.0000000000,0.0000000000,0.0000000000,0.0000000000,-0.0100476108,-0.0043579210,-0.0011651180,-0.0027252806,-0.1689522415,-0.0104430914,0.2049221843,-0.0779586583,0.0598864183,0.2070376391,1.2469934528,-0.2929110994,0.0000000000,0.0000000000,0.0000000000,0.0000000000,0.0000000000,0.1393656284,0.0000000000,0.0000000000,0.0000000000,0.0000000000,0.0000000000,0.0000000000,0.0000000000,0.0000000000,0.0000000000,0.0000000000,0.0000000000,0.0000000000,-0.0000000000,0.0000000000,0.0000000000,-0.0000000000,0.0000000000,0.0000000000,-64.4399032593,11.9073553085,0.0000000000,0.0000700951,0.8000931740,0.0000381470,0.0400979519,0.0200698376,0.0200536251,0.0400688648,0.0000257492,0.0800607204,0.0300636292,0.0100293159,0.0100128651,0.0200440884,0.0000166893,0.0200302601,0.0400550365,262143
1777399850.9436211586,0.0286621340,0.0298424792,0.0979637504,0.1635137299,0.0275838617,0.0022603505,4.0900001526,4.0909090042,4.0927715302,0.0000000000,0.0000000000,0.0000000000,0.0000000000,-0.0100476108,-0.0043579210,-0.0011651180,-0.0027252806,-0.1689522415,-0.0104430914,0.2049221843,-0.0779586583,0.0598864183,0.2070376391,1.2469934528,-0.2929110994,0.0000000000,0.0000000000,0.0000000000,0.0000000000,0.0000000000,0.1393656284,0.0000000000,0.0000000000,0.0000000000,0.0000000000,0.0000000000,0.0000000000,0.0000000000,0.0000000000,0.0000000000,0.0000000000,0.0000000000,0.0000000000,-0.0000000000,0.0000000000,0.0000000000,-0.0000000000,0.0000000000,0.0000000000,-64.4399032593,11.9073553085,0.0000000000,0.0100400448,0.8100631237,0.0100080967,0.0000274181,0.0300397873,0.0300235748,0.0500388145,0.0099956989,0.0900306702,0.0400335789,0.0199992657,0.0199828148,0.0300140381,0.0099866390,0.0300002098,0.0500249863,262143
1777399850.9536345005,0.0286621340,0.0298424792,0.0979637504,0.1635137299,0.0275838617,0.0022603505,4.0900001526,4.0909090042,4.0927715302,0.0000000000,0.0000000000,0.0000000000,0.0000000000,-0.0100476108,-0.0043579210,-0.0011651180,-0.0027252806,-0.1689522415,-0.0104430914,0.2049221843,-0.0779586583,0.0598864183,0.2070376391,1.2469934528,-0.2929110994,0.0000000000,0.0000000000,0.0000000000,0.0000000000,0.0000000000,0.1448255330,0.0000000000,0.0000000000,0.0000000000,0.0000000000,0.0000000000,0.0000000000,0.0000000000,0.0000000000,0.0000000000,0.0000000000,0.0000000000,0.0000000000,-0.0000000000,0.0000000000,0.0000000000,-0.0000000000,0.0000000000,0.0000000000,-64.4399032593,11.9073553085,0.0000000000,0.0200533867,0.8200764656,0.0200214386,0.0100407600,0.0400531292,0.0400369167,0.0600521564,0.0200090408,0.0000231266,0.0500469208,0.0300126076,0.0299961567,0.0400273800,0.0199999809,0.0400135517,0.0600383282,262143
1777399850.9635646343,0.0286621340,0.0298424792,0.0979637504,0.1635137299,0.0275838617,0.0022603505,4.0900001526,4.0909090042,4.0927715302,0.0000000000,0.0000000000,0.0000000000,0.0000000000,-0.0100476108,-0.0043579210,-0.0011651180,-0.0027252806,-0.1689522415,-0.0104430914,0.2049221843,-0.0779586583,0.0598864183,0.2070376391,1.2469934528,-0.2929110994,0.0000000000,0.0000000000,0.0000000000,0.0000000000,0.0000000000,0.1448255330,0.0000000000,0.0000000000,0.0000000000,0.0000000000,0.0000000000,0.0000000000,0.0000000000,0.0000000000,0.0000000000,0.0000000000,0.0000000000,0.0000000000,-0.0000000000,0.0000000000,0.0000000000,-0.0000000000,0.0000000000,0.0000000000,-64.4399032593,11.9073553085,0.0000000000,0.0299835205,0.8300065994,0.0299515724,0.0199708939,0.0499832630,0.0499670506,0.0699822903,0.0299391747,0.0099532604,0.0599770546,0.0399427414,0.0399262905,0.0000278950,0.0299301147,0.0000131130,0.0699684620,262143
1777399850.9736106396,0.0286621340,0.0298424792,0.0979637504,0.1635137299,0.0275838617,0.0022603505,4.0900001526,4.0909090042,4.0927715302,0.0000000000,0.0000000000,0.0000000000,0.0000000000,-0.0100476108,-0.0043579210,-0.0011651180,-0.0027252806,-0.1689522415,-0.0104430914,0.2049221843,-0.0779586583,0.0598864183,0.2070376391,1.2469934528,-0.2929110994,0.0000000000,0.0000000000,0.0000000000,0.0000000000,0.0000000000,0.1448255330,0.0000000000,0.0000000000,0.0000000000,0.0000000000,0.0000000000,0.0000000000,0.0000000000,0.0000000000,0.0000000000,0.0000000000,0.0000000000,0.0000000000,-0.0000000000,0.0000000000,0.0000000000,-0.0000000000,0.0000000000,0.0000000000,-64.4399032593,11.9073553085,0.0000000000,0.0400295258,0.8400526047,0.0399975777,0.0300168991,0.0600292683,0.0600130558,0.0800282955,0.0399851799,0.0199992657,0.0700230598,0.0000317097,0.0000150204,0.0100739002,0.0399761200,0.0100591183,0.0800144672,262143
1777399850.9835829735,0.0283602085,0.0297191776,0.0980263576,0.1496385623,0.0303589706,0.0022758581,4.0900001526,4.0909090042,4.0926542282,0.0000000000,0.0000000000,0.0000000000,0.0000000000,-0.0100476108,-0.0043579210,-0.0011651180,-0.0027252806,-0.1689522415,-0.0104430914,0.2049221843,-0.0779586583,0.0598864183,0.2070376391,1.2469934528,-0.2929110994,0.0000000000,0.0000000000,0.0000000000,0.0000000000,0.0000000000,0.1448255330,0.0000000000,0.0000000000,0.0000000000,0.0000000000,0.0000000000,0.0000000000,0.0000000000,0.0000000000,0.0000000000,0.0000000000,0.0000000000,0.0000000000,-0.0000000000,0.0000000000,0.0000000000,-0.0000000000,0.0000000000,0.0000000000,-64.4399032593,11.9073553085,0.0000000000,0.0000448227,0.8500249386,0.0000238419,0.0399892330,0.0700016022,0.0699853897,0.0900006294,0.0499575138,0.0299715996,0.0799953938,0.0100040436,0.0099873543,0.0200462341,0.0000128746,0.0200314522,0.0899868011,262143
1777399850.9936182499,0.0283602085,0.0297191776,0.0980263576,0.1496385623,0.0303589706,0.0022758581,4.0900001526,4.0909090042,4.0926542282,0.0000000000,0.0000000000,0.0000000000,0.0000000000,-0.0100476108,-0.0043579210,-0.0011651180,-0.0027252806,-0.1689522415,-0.0104430914,0.0229378976,-0.0615441464,0.0647644475,-1.8195365968,0.1641174947,0.0487720828,0.0000000000,0.0000000000,0.0000000000,0.0000000000,0.0000000000,0.1448255330,0.0000000000,0.0000000000,0.0000000000,0.0000000000,0.0000000000,0.0000000000,0.0000000000,0.0000000000,0.0000000000,0.0000000000,0.0000000000,0.0000000000,-0.0000000000,0.0000000000,0.0000000000,-0.0000000000,0.0000000000,0.0000000000,-64.4399032593,11.9073553085,0.0000000000,0.0100800991,0.8600602150,0.0100591183,0.0000460148,0.0800368786,0.0800206661,0.0000190735,0.0599927902,0.0400068760,0.0900306702,0.0200393200,0.0200226307,0.0300815105,0.0100481510,0.0300667286,0.1000220776,262143
1777399851.0035331249,0.0283602085,0.0297191776,0.0980263576,0.1496385623,0.0303589706,0.0022758581,4.0900001526,4.0909090042,4.0926542282,0.0000000000,0.0000000000,0.0000000000,0.0000000000,-0.0100476108,-0.0043579210,-0.0011651180,-0.0027252806,-0.1689522415,-0.0104430914,0.0229378976,-0.0615441464,0.0647644475,-1.8195365968,0.1641174947,0.0487720828,0.0000000000,0.0000000000,0.0000000000,0.0000000000,0.0000000000,0.1448255330,0.0000000000,0.0000000000,0.0000000000,0.0000000000,0.0000000000,0.0000000000,0.0000000000,0.0000000000,0.0000000000,0.0000000000,0.0000000000,0.0000000000,-0.0000000000,0.0000000000,0.0000000000,-0.0000000000,0.0000000000,0.0000000000,-54.2666206360,13.3832082748,0.0000000000,0.0199949741,0.8699750900,0.0199739933,0.0099608898,0.0899517536,0.0899355412,0.0099339485,0.0699076653,0.0499217510,0.0000143051,0.0299541950,0.0299375057,0.0399963856,0.0199630260,0.0399816036,0.1099369526,262143
1777399851.0136289597,0.0283602085,0.0297191776,0.0980263576,0.1496385623,0.0303589706,0.0022758581,4.0900001526,4.0909090042,4.0926542282,0.0000000000,0.0000000000,0.0000000000,0.0000000000,-0.0100476108,-0.0043579210,-0.0011651180,-0.0031346497,-0.1444115490,-0.0091229081,0.0229378976,-0.0615441464,0.0647644475,-1.8195365968,0.1641174947,0.0487720828,0.0000000000,0.0000000000,0.0000000000,0.0000000000,0.0000000000,0.1448255330,0.0000000000,0.0000000000,0.0000000000,0.0000000000,0.0000000000,0.0000000000,0.0000000000,0.0000000000,0.0000000000,0.0000000000,0.0000000000,0.0000000000,-0.0000000000,0.0000000000,0.0000000000,-0.0000000000,0.0000000000,0.0000000000,-54.2666206360,13.3832082748,0.0000000000,0.0300908089,0.8800709248,0.0300698280,0.0200567245,0.1000475883,0.0000369549,0.0200297832,0.0800035000,0.0600175858,0.0101101398,0.0400500298,0.0400333405,0.0500922203,0.0300588608,0.0000174046,0.1200327873,262143
1777399851.0237579346,0.0287094861,0.0298780575,0.0980358720,0.1385449093,0.0331323784,0.0022990488,4.0900001526,4.0909090042,4.0926542282,0.0000000000,0.0000000000,0.0000000000,0.0000000000,-0.0083913617,-0.0035864515,0.0012462704,-0.0031346497,-0.1444115490,-0.0091229081,0.0229378976,-0.0615441464,0.0647644475,-1.8195365968,0.1641174947,0.0487720828,0.0000000000,0.0000000000,0.0000000000,0.0000000000,0.0000000000,0.1448255330,0.0000000000,0.0000000000,0.0000000000,0.0000000000,0.0000000000,0.0000000000,0.0000000000,0.0000000000,0.0000000000,0.0000000000,0.0000000000,0.0000000000,-0.0000000000,0.0000000000,0.0000000000,-0.0000000000,0.0000000000,0.0000000000,-54.2666206360,13.3832082748,0.0000000000,0.0001211166,0.8901998997,0.0401988029,0.0301856995,0.0000770092,0.0101659298,0.0301587582,0.0000596046,0.0701465607,0.0202391148,0.0000474453,0.0000360012,0.0000238419,0.0401878357,0.0101463795,0.1301617622,262143
1777399851.0336775780,0.0287094861,0.0298780575,0.0980358720,0.1385449093,0.0331323784,0.0022990488,4.0900001526,4.0909090042,4.0926036835,0.0000000000,0.0000000000,0.0000000000,0.0000000000,-0.0083913617,-0.0035864515,0.0012462704,-0.0031346497,-0.1444115490,-0.0091229081,0.0229378976,-0.0615441464,0.0647644475,-1.8195365968,0.1641174947,0.0487720828,0.0000000000,0.0000000000,0.0000000000,0.0000000000,0.0000000000,0.1448255330,0.0000000000,0.0000000000,0.0000000000,0.0000000000,0.0000000000,0.0000000000,0.0000000000,0.0000000000,0.0000000000,0.0000000000,0.0000000000,0.0000000000,-0.0000000000,0.0000000000,0.0000000000,-0.0000000000,0.0000000000,0.0000000000,-54.2666206360,13.3832082748,0.0000000000,0.0100407600,0.9001195431,0.0000479221,0.0401053429,0.0099966526,0.0200855732,0.0400784016,0.0099792480,0.0800662041,0.0301587582,0.0099670887,0.0099556446,0.0099434853,0.0000231266,0.0200660229,0.1400814056,262143
1777399851.0436010361,0.0287094861,0.0298780575,0.0980358720,0.1385449093,0.0331323784,0.0022990488,4.0900001526,4.0909090042,4.0926036835,0.0000000000,0.0000000000,0.0000000000,0.0000000000,-0.0083913617,-0.0035864515,0.0012462704,-0.0031346497,-0.1444115490,-0.0091229081,0.0229378976,-0.0615441464,0.0647644475,-1.8195365968,0.1641174947,0.0487720828,0.0000000000,0.0000000000,0.0000000000,0.0000000000,0.0000000000,0.1448255330,0.0000000000,0.0000000000,0.0000000000,0.0000000000,0.0000000000,0.0000000000,0.0000000000,0.0000000000,0.0000000000,0.0000000000,0.0000000000,0.0000000000,-0.0000000000,0.0000000000,0.0000000000,-0.0000000000,0.0000000000,0.0000000000,-54.2666206360,13.3832082748,0.0000000000,0.0199642181,0.9100430012,0.0099713802,0.0000226498,0.0199201107,0.0300090313,0.0500018597,0.0199027061,0.0899896622,0.0400822163,0.0198905468,0.0198791027,0.0198669434,0.0099465847,0.0299894810,0.1500048637,262143
1777399851.0536129475,0.0287094861,0.0298780575,0.0980358720,0.1385449093,0.0331323784,0.0022990488,4.0900001526,4.0909090042,4.0926036835,0.0000000000,0.0000000000,0.0000000000,0.0000000000,-0.0083913617,-0.0035864515,0.0012462704,-0.0031346497,-0.1444115490,-0.0091229081,0.0229378976,-0.0615441464,0.0647644475,-1.8195365968,0.1641174947,0.0487720828,0.0000000000,0.0000000000,0.0000000000,0.0000000000,0.0000000000,0.1431600749,0.0000000000,0.0000000000,0.0000000000,0.0000000000,0.0000000000,0.0000000000,0.0000000000,0.0000000000,0.0000000000,0.0000000000,0.0000000000,0.0000000000,-0.0000000000,0.0000000000,0.0000000000,-0.0000000000,0.0000000000,0.0000000000,-54.2666206360,13.3832082748,0.0000000000,0.0299761295,0.9200549126,0.0199832916,0.0100345612,0.0299320221,0.0400209427,0.0600137711,0.0299146175,0.0000231266,0.0500941277,0.0299024582,0.0298910141,0.0298788548,0.0199584961,0.0400013924,0.1600167751,262143
1777399851.0636291504,0.0287094861,0.0298780575,0.0980358720,0.1385449093,0.0331323784,0.0022990488,4.0900001526,4.0909090042,4.0926036835,0.0000000000,0.0000000000,0.0000000000,0.0000000000,-0.0083913617,-0.0035864515,0.0012462704,-0.0031346497,-0.1444115490,-0.0091229081,0.0229378976,-0.0615441464,0.0647644475,-1.8195365968,0.1641174947,0.0487720828,0.0000000000,0.0000000000,0.0000000000,0.0000000000,0.0000000000,0.1431600749,0.0000000000,0.0000000000,0.0000000000,0.0000000000,0.0000000000,0.0000000000,0.0000000000,0.0000000000,0.0000000000,0.0000000000,0.0000000000,0.0000000000,-0.0000000000,0.0000000000,0.0000000000,-0.0000000000,0.0000000000,0.0000000000,-54.2666206360,13.3832082748,0.0000000000,0.0399923325,0.9300711155,0.0299994946,0.0200507641,0.0399482250,0.0500371456,0.0700299740,0.0399308205,0.0100393295,0.0601103306,0.0399186611,0.0399072170,0.0000312328,0.0299746990,0.0000162125,0.1700329781,262143
1777399851.0736351013,0.0284283813,0.0297777709,0.0981146097,0.1274456664,0.0331446248,0.0021151257,4.0900001526,4.0909090042,4.0926036835,0.0000000000,0.0000000000,0.0000000000,0.0000000000,-0.0083913617,-0.0035864515,0.0012462704,-0.0031346497,-0.1444115490,-0.0091229081,0.0229378976,-0.0615441464,0.0647644475,-1.8195365968,0.1641174947,0.0487720828,0.0000000000,0.0000000000,0.0000000000,0.0000000000,0.0000000000,0.1431600749,0.0000000000,0.0000000000,0.0000000000,0.0000000000,0.0000000000,0.0000000000,0.0000000000,0.0000000000,0.0000000000,0.0000000000,0.0000000000,0.0000000000,-0.0000000000,0.0000000000,0.0000000000,-0.0000000000,0.0000000000,0.0000000000,-54.2666206360,13.3832082748,0.0000000000,0.0000607967,0.9400770664,0.0400054455,0.0300567150,0.0499541759,0.0600430965,0.0800359249,0.0499367714,0.0200452805,0.0701162815,0.0000278950,0.0000162125,0.0100371838,0.0399806499,0.0100221634,0.1800389290,262143
1777399851.0836570263,0.0284283813,0.0297777709,0.0981146097,0.1274456664,0.0331446248,0.0021151257,4.0900001526,4.0961875916,4.0926280022,0.0000000000,0.0000000000,0.0000000000,0.0000000000,-0.0083913617,-0.0035864515,0.0012462704,-0.0031346497,-0.1444115490,-0.0091229081,0.0229378976,-0.0615441464,0.0647644475,-1.8195365968,0.1641174947,0.0487720828,0.0000000000,0.0000000000,0.0000000000,0.0000000000,0.0000000000,0.1431600749,0.0000000000,0.0000000000,0.0000000000,0.0000000000,0.0000000000,0.0000000000,0.0000000000,0.0000000000,0.0000000000,0.0000000000,0.0000000000,0.0000000000,-0.0000000000,0.0000000000,0.0000000000,-0.0000000000,0.0000000000,0.0000000000,-54.2666206360,13.3832082748,0.0000000000,0.0100827217,0.9500989914,0.0000364780,0.0400786400,0.0599761009,0.0700650215,0.0900578499,0.0599586964,0.0300672054,0.0801382065,0.0100498199,0.0100381374,0.0200591087,0.0000185966,0.0200440884,0.1900608540,262143
1777399851.0936796665,0.0284283813,0.0297777709,0.0981146097,0.1274456664,0.0331446248,0.0021151257,4.0900001526,4.0961875916,4.0926280022,0.0000000000,0.0000000000,0.0000000000,0.0000000000,-0.0083913617,-0.0035864515,0.0012462704,-0.0031346497,-0.1444115490,-0.0091229081,0.0359574743,-0.2069419473,0.0642285421,0.1301474847,-1.4534388138,-0.0053570663,0.0000000000,0.0000000000,0.0000000000,0.0000000000,0.0000000000,0.1431600749,0.0000000000,0.0000000000,0.0000000000,0.0000000000,0.0000000000,0.0000000000,0.0000000000,0.0000000000,0.0000000000,0.0000000000,0.0000000000,0.0000000000,-0.0000000000,0.0000000000,0.0000000000,-0.0000000000,0.0000000000,0.0000000000,-54.2666206360,13.3832082748,0.0000000000,0.0201053619,0.9601216316,0.0100591183,0.0000829697,0.0699987411,0.0800876617,0.0000433922,0.0699813366,0.0400898457,0.0901608467,0.0200724602,0.0200607777,0.0300817490,0.0100412369,0.0300667286,0.0000226498,262143
1777399851.1036834717,0.0284283813,0.0297777709,0.0981146097,0.1274456664,0.0331446248,0.0021151257,4.0900001526,4.0961875916,4.0926280022,0.0000000000,0.0000000000,0.0000000000,0.0000000000,-0.0083913617,-0.0035864515,0.0012462704,-0.0031346497,-0.1444115490,-0.0091229081,0.0359574743,-0.2069419473,0.0642285421,0.1301474847,-1.4534388138,-0.0053570663,0.0000000000,0.0000000000,0.0000000000,0.0000000000,0.0000000000,0.1431600749,0.0000000000,0.0000000000,0.0000000000,0.0000000000,0.0000000000,0.0000000000,0.0000000000,0.0000000000,0.0000000000,0.0000000000,0.0000000000,0.0000000000,-0.0000000000,0.0000000000,0.0000000000,-0.0000000000,0.0000000000,0.0000000000,-45.5335922241,14.7547254562,0.0000000000,0.0301091671,0.9701254368,0.0200629234,0.0100867748,0.0800025463,0.0900914669,0.0100471973,0.0799851418,0.0500936508,0.0000236034,0.0300762653,0.0300645828,0.0400855541,0.0200450420,0.0400705338,0.0100264549,262143
1777399851.1136465073,0.0284283813,0.0297777709,0.0981146097,0.1274456664,0.0331446248,0.0021151257,4.0900001526,4.0961875916,4.0926280022,0.0000000000,0.0000000000,0.0000000000,0.0000000000,-0.0075178640,-0.0028829451,0.0019618557,0.0016096962,-0.1208032295,-0.0054893494,0.0359574743,-0.2069419473,0.0642285421,0.1301474847,-1.4534388138,-0.0053570663,0.0000000000,0.0000000000,0.0000000000,0.0000000000,0.0000000000,0.1431600749,0.0000000000,0.0000000000,0.0000000000,0.0000000000,0.0000000000,0.0000000000,0.0000000000,0.0000000000,0.0000000000,0.0000000000,0.0000000000,0.0000000000,-0.0000000000,0.0000000000,0.0000000000,-0.0000000000,0.0000000000,0.0000000000,-45.5335922241,14.7547254562,0.0000000000,0.0400722027,0.9800884724,0.0300259590,0.0200498104,0.0000607967,0.0000452995,0.0200102329,0.0000360012,0.0600566864,0.0099866390,0.0400393009,0.0400276184,0.0000267029,0.0300080776,0.0000171661,0.0199894905,262143
1777399851.1236200333,0.0284283813,0.0297777709,0.0981146097,0.1274456664,0.0331446248,0.0021151257,4.0900001526,4.0961875916,4.0926280022,0.0000000000,0.0000000000,0.0000000000,0.0000000000,-0.0075178640,-0.0028829451,0.0019618557,0.0016096962,-0.1208032295,-0.0054893494,0.0359574743,-0.2069419473,0.0642285421,0.1301474847,-1.4534388138,-0.0053570663,0.0000000000,0.0000000000,0.0000000000,0.0000000000,0.0000000000,0.1431600749,0.0000000000,0.0000000000,0.0000000000,0.0000000000,0.0000000000,0.0000000000,0.0000000000,0.0000000000,0.0000000000,0.0000000000,0.0000000000,0.0000000000,-0.0000000000,0.0000000000,0.0000000000,-0.0000000000,0.0000000000,0.0000000000,-45.5335922241,14.7547254562,0.0000000000,0.0500457287,0.9900619984,0.0399994850,0.0300233364,0.0100343227,0.0100188255,0.0299837589,0.0100095272,0.0700302124,0.0199601650,0.0000357628,0.0000181198,0.0100002289,0.0399816036,0.0099906921,0.0299630165,262143
1777399851.1337165833,0.0287294183,0.0299012829,0.0980593935,0.1163586930,0.0359191121,0.0020923357,4.0900001526,4.0909090042,4.0927085876,0.0000000000,0.0000000000,0.0000000000,0.0000000000,-0.0075178640,-0.0028829451,0.0019618557,0.0016096962,-0.1208032295,-0.0054893494,0.0359574743,-0.2069419473,0.0642285421,0.1301474847,-1.4534388138,-0.0053570663,0.0000000000,0.0000000000,0.0000000000,0.0000000000,0.0000000000,0.1431600749,0.0000000000,0.0000000000,0.0000000000,0.0000000000,0.0000000000,0.0000000000,0.0000000000,0.0000000000,0.0000000000,0.0000000000,0.0000000000,0.0000000000,-0.0000000000,0.0000000000,0.0000000000,-0.0000000000,0.0000000000,0.0000000000,-45.5335922241,14.7547254562,0.0000000000,0.0001058578,0.0000696182,0.0000364780,0.0401198864,0.0201308727,0.0201153755,0.0400803089,0.0201060772,0.0801267624,0.0300567150,0.0101323128,0.0101146698,0.0200967789,0.0000209808,0.0200872421,0.0400595665,262143
1777399851.1435945034,0.0287294183,0.0299012829,0.0980593935,0.1163586930,0.0359191121,0.0020923357,4.0900001526,4.0909090042,4.0927085876,0.0000000000,0.0000000000,0.0000000000,0.0000000000,-0.0075178640,-0.0028829451,0.0019618557,0.0016096962,-0.1208032295,-0.0054893494,0.0359574743,-0.2069419473,0.0642285421,0.1301474847,-1.4534388138,-0.0053570663,0.0000000000,0.0000000000,0.0000000000,0.0000000000,0.0000000000,0.1431600749,0.0000000000,0.0000000000,0.0000000000,0.0000000000,0.0000000000,0.0000000000,0.0000000000,0.0000000000,0.0000000000,0.0000000000,0.0000000000,0.0000000000,-0.0000000000,0.0000000000,0.0000000000,-0.0000000000,0.0000000000,0.0000000000,-45.5335922241,14.7547254562,0.0000000000,0.0099837780,0.0099475384,0.0099143982,0.0000221729,0.0300087929,0.0299932957,0.0499582291,0.0299839973,0.0900046825,0.0399346352,0.0200102329,0.0199925900,0.0299746990,0.0098989010,0.0299651623,0.0499374866,262143
1777399851.1536216736,0.0287294183,0.0299012829,0.0980593935,0.1163586930,0.0359191121,0.0020923357,4.0900001526,4.0909090042,4.0927085876,0.0000000000,0.0000000000,0.0000000000,0.0000000000,-0.0075178640,-0.0028829451,0.0019618557,0.0016096962,-0.1208032295,-0.0054893494,0.0359574743,-0.2069419473,0.0642285421,0.1301474847,-1.4534388138,-0.0053570663,0.0000000000,0.0000000000,0.0000000000,0.0000000000,0.0000000000,0.1430821270,0.0000000000,0.0000000000,0.0000000000,0.0000000000,0.0000000000,0.0000000000,0.0000000000,0.0000000000,0.0000000000,0.0000000000,0.0000000000,0.0000000000,-0.0000000000,0.0000000000,0.0000000000,-0.0000000000,0.0000000000,0.0000000000,-45.5335922241,14.7547254562,0.0000000000,0.0200109482,0.0199747086,0.0199415684,0.0100493431,0.0400359631,0.0400204659,0.0599853992,0.0400111675,0.0000252724,0.0499618053,0.0300374031,0.0300197601,0.0400018692,0.0199260712,0.0399923325,0.0599646568,262143
1777399851.1636190414,0.0287294183,0.0299012829,0.0980593935,0.1163586930,0.0359191121,0.0020923357,4.0900001526,4.0909090042,4.0927085876,0.0000000000,0.0000000000,0.0000000000,0.0000000000,-0.0075178640,-0.0028829451,0.0019618557,0.0016096962,-0.1208032295,-0.0054893494,0.0359574743,-0.2069419473,0.0642285421,0.1301474847,-1.4534388138,-0.0053570663,0.0000000000,0.0000000000,0.0000000000,0.0000000000,0.0000000000,0.1430821270,0.0000000000,0.0000000000,0.0000000000,0.0000000000,0.0000000000,0.0000000000,0.0000000000,0.0000000000,0.0000000000,0.0000000000,0.0000000000,0.0000000000,-0.0000000000,0.0000000000,0.0000000000,-0.0000000000,0.0000000000,0.0000000000,-45.5335922241,14.7547254562,0.0000000000,0.0300083160,0.0299720764,0.0299389362,0.0200467110,0.0500333309,0.0500178337,0.0699827671,0.0500085354,0.0100226402,0.0599591732,0.0400347710,0.0400171280,0.0000309944,0.0299234390,0.0000150204,0.0699620247,262143
1777399851.1736891270,0.0284666028,0.0298498999,0.0981564298,0.1052661498,0.0359301602,0.0018930661,4.0900001526,4.0909090042,4.0927085876,0.0000000000,0.0000000000,0.0000000000,0.0000000000,-0.0075178640,-0.0028829451,0.0019618557,0.0016096962,-0.1208032295,-0.0054893494,0.0359574743,-0.2069419473,0.0642285421,0.1301474847,-1.4534388138,-0.0053570663,0.0000000000,0.0000000000,0.0000000000,0.0000000000,0.0000000000,0.1430821270,0.0000000000,0.0000000000,0.0000000000,0.0000000000,0.0000000000,0.0000000000,0.0000000000,0.0000000000,0.0000000000,0.0000000000,0.0000000000,0.0000000000,-0.0000000000,0.0000000000,0.0000000000,-0.0000000000,0.0000000000,0.0000000000,-45.5335922241,14.7547254562,0.0000000000,0.0000765324,0.0400421619,0.0400090218,0.0301167965,0.0601034164,0.0600879192,0.0800528526,0.0600786209,0.0200927258,0.0700292587,0.0000383854,0.0000221729,0.0101010799,0.0399935246,0.0100851059,0.0800321102,262143
1777399851.1836950779,0.0284666028,0.0298498999,0.0981564298,0.1052661498,0.0359301602,0.0018930661,4.0900001526,4.0909090042,4.0925951004,0.0000000000,0.0000000000,0.0000000000,0.0000000000,-0.0075178640,-0.0028829451,0.0019618557,0.0016096962,-0.1208032295,-0.0054893494,0.0359574743,-0.2069419473,0.0642285421,0.1301474847,-1.4534388138,-0.0053570663,0.0000000000,0.0000000000,0.0000000000,0.0000000000,0.0000000000,0.1430821270,0.0000000000,0.0000000000,0.0000000000,0.0000000000,0.0000000000,0.0000000000,0.0000000000,0.0000000000,0.0000000000,0.0000000000,0.0000000000,0.0000000000,-0.0000000000,0.0000000000,0.0000000000,-0.0000000000,0.0000000000,0.0000000000,-45.5335922241,14.7547254562,0.0000000000,0.0100824833,0.0500481129,0.0000414848,0.0401227474,0.0701093674,0.0700938702,0.0900588036,0.0700845718,0.0300986767,0.0800352097,0.0100443363,0.0100281239,0.0201070309,0.0000185966,0.0200910568,0.0900380611,262143
1777399851.1935968399,0.0284666028,0.0298498999,0.0981564298,0.1052661498,0.0359301602,0.0018930661,4.0900001526,4.0909090042,4.0925951004,0.0000000000,0.0000000000,0.0000000000,0.0000000000,-0.0075178640,-0.0028829451,0.0019618557,0.0016096962,-0.1208032295,-0.0054893494,0.0359574743,-0.2069419473,0.0642285421,0.1301474847,-1.4534388138,-0.0053570663,0.0000000000,0.0000000000,0.0000000000,0.0000000000,0.0000000000,0.1430821270,0.0000000000,0.0000000000,0.0000000000,0.0000000000,0.0000000000,0.0000000000,0.0000000000,0.0000000000,0.0000000000,0.0000000000,0.0000000000,0.0000000000,-0.0000000000,0.0000000000,0.0000000000,-0.0000000000,0.0000000000,0.0000000000,-45.5335922241,14.7547254562,0.0000000000,0.0199842453,0.0599498749,0.0099432468,0.0000205040,0.0800111294,0.0799956322,0.0999605656,0.0799863338,0.0400004387,0.0899369717,0.0199460983,0.0199298859,0.0300087929,0.0099203587,0.0299928188,0.0999398232,262143
1777399851.2037081718,0.0284666028,0.0298498999,0.0981564298,0.1052661498,0.0359301602,0.0018930661,4.0900001526,4.0909090042,4.0925951004,0.0000000000,0.0000000000,0.0000000000,0.0000000000,-0.0075178640,-0.0028829451,0.0019618557,0.0054317834,-0.0984145403,-0.0052340031,-0.0628537685,-0.1845738143,0.1606999040,-0.8980824410,0.2033010313,0.8768155699,0.0000000000,0.0000000000,0.0000000000,0.0000000000,0.0000000000,0.1430821270,0.0000000000,0.0000000000,0.0000000000,0.0000000000,0.0000000000,0.0000000000,0.0000000000,0.0000000000,0.0000000000,0.0000000000,0.0000000000,0.0000000000,-0.0000000000,0.0000000000,0.0000000000,-0.0000000000,0.0000000000,0.0000000000,-38.0409927368,15.9870700836,0.0000000000,0.0300955772,0.0700612068,0.0200545788,0.0101318359,0.0901224613,0.0000698566,0.0000472069,0.0000333786,0.0501117706,0.0000212193,0.0300574303,0.0300412178,0.0401201248,0.0200316906,0.0401041508,0.1100511551,262143
1777399851.2136178017,0.0284666028,0.0298498999,0.0981564298,0.1052661498,0.0359301602,0.0018930661,4.0900001526,4.0909090042,4.0925951004,0.0000000000,0.0000000000,0.0000000000,0.0000000000,-0.0075178640,-0.0028829451,0.0019618557,0.0054317834,-0.0984145403,-0.0052340031,-0.0628537685,-0.1845738143,0.1606999040,-0.8980824410,0.2033010313,0.8768155699,0.0000000000,0.0000000000,0.0000000000,0.0000000000,0.0000000000,0.1430821270,0.0000000000,0.0000000000,0.0000000000,0.0000000000,0.0000000000,0.0000000000,0.0000000000,0.0000000000,0.0000000000,0.0000000000,0.0000000000,0.0000000000,-0.0000000000,0.0000000000,0.0000000000,-0.0000000000,0.0000000000,0.0000000000,-38.0409927368,15.9870700836,0.0000000000,0.0400052071,0.0799708366,0.0299642086,0.0200414658,0.1000320911,0.0099794865,0.0099568367,0.0099430084,0.0600214005,0.0099308491,0.0399670601,0.0399508476,0.0000314713,0.0299413204,0.0000159740,0.1199607849,262143
1777399851.2237117290,0.0281300563,0.0298179835,0.0982896239,0.0969563989,0.0387024920,0.0018779322,4.0900001526,4.0909090042,4.0925951004,0.0000000000,0.0000000000,0.0000000000,0.0000000000,-0.0072076921,-0.0007875923,0.0027351901,0.0054317834,-0.0984145403,-0.0052340031,-0.0628537685,-0.1845738143,0.1606999040,-0.8980824410,0.2033010313,0.8768155699,0.0000000000,0.0000000000,0.0000000000,0.0000000000,0.0000000000,0.1430821270,0.0000000000,0.0000000000,0.0000000000,0.0000000000,0.0000000000,0.0000000000,0.0000000000,0.0000000000,0.0000000000,0.0000000000,0.0000000000,0.0000000000,-0.0000000000,0.0000000000,0.0000000000,-0.0000000000,0.0000000000,0.0000000000,-38.0409927368,15.9870700836,0.0000000000,0.0000865459,0.0900647640,0.0400581360,0.0301353931,0.0000467300,0.0200734138,0.0200507641,0.0200369358,0.0701153278,0.0200247765,0.0000286102,0.0000171661,0.0101253986,0.0400352478,0.0101099014,0.1300547123,262143
1777399851.2336688042,0.0281300563,0.0298179835,0.0982896239,0.0969563989,0.0387024920,0.0018779322,4.0900001526,4.0909090042,4.0925745964,0.0000000000,0.0000000000,0.0000000000,0.0000000000,-0.0072076921,-0.0007875923,0.0027351901,0.0054317834,-0.0984145403,-0.0052340031,-0.0628537685,-0.1845738143,0.1606999040,-0.8980824410,0.2033010313,0.8768155699,0.0000000000,0.0000000000,0.0000000000,0.0000000000,0.0000000000,0.1430821270,0.0000000000,0.0000000000,0.0000000000,0.0000000000,0.0000000000,0.0000000000,0.0000000000,0.0000000000,0.0000000000,0.0000000000,0.0000000000,0.0000000000,-0.0000000000,0.0000000000,0.0000000000,-0.0000000000,0.0000000000,0.0000000000,-38.0409927368,15.9870700836,0.0000000000,0.0100436211,0.1000218391,0.0000460148,0.0400924683,0.0100038052,0.0300304890,0.0300078392,0.0299940109,0.0800724030,0.0299818516,0.0099856853,0.0099742413,0.0200824738,0.0000228882,0.0200669765,0.1400117874,262143
1777399851.2436418533,0.0281300563,0.0298179835,0.0982896239,0.0969563989,0.0387024920,0.0018779322,4.0900001526,4.0909090042,4.0925745964,0.0000000000,0.0000000000,0.0000000000,0.0000000000,-0.0072076921,-0.0007875923,0.0027351901,0.0054317834,-0.0984145403,-0.0052340031,-0.0628537685,-0.1845738143,0.1606999040,-0.8980824410,0.2033010313,0.8768155699,0.0000000000,0.0000000000,0.0000000000,0.0000000000,0.0000000000,0.1430821270,0.0000000000,0.0000000000,0.0000000000,0.0000000000,0.0000000000,0.0000000000,0.0000000000,0.0000000000,0.0000000000,0.0000000000,0.0000000000,0.0000000000,-0.0000000000,0.0000000000,0.0000000000,-0.0000000000,0.0000000000,0.0000000000,-38.0409927368,15.9870700836,0.0000000000,0.0200166702,0.1099948883,0.0100190639,0.0000309944,0.0199768543,0.0400035381,0.0399808884,0.0399670601,0.0900454521,0.0399549007,0.0199587345,0.0199472904,0.0300555229,0.0099959373,0.0300400257,0.1499848366,262143
1777399851.2536864281,0.0281300563,0.0298179835,0.0982896239,0.0969563989,0.0387024920,0.0018779322,4.0900001526,4.0909090042,4.0925745964,0.0000000000,0.0000000000,0.0000000000,0.0000000000,-0.0072076921,-0.0007875923,0.0027351901,0.0054317834,-0.0984145403,-0.0052340031,-0.0628537685,-0.1845738143,0.1606999040,-0.8980824410,0.2033010313,0.8768155699,0.0000000000,0.0000000000,0.0000000000,0.0000000000,0.0000000000,0.1421059817,0.0000000000,0.0000000000,0.0000000000,0.0000000000,0.0000000000,0.0000000000,0.0000000000,0.0000000000,0.0000000000,0.0000000000,0.0000000000,0.0000000000,-0.0000000000,0.0000000000,0.0000000000,-0.0000000000,0.0000000000,0.0000000000,-38.0409927368,15.9870700836,0.0000000000,0.0300612450,0.1200394630,0.0200636387,0.0100755692,0.0300214291,0.0500481129,0.0500254631,0.0500116348,0.0000295639,0.0499994755,0.0300033092,0.0299918652,0.0401000977,0.0200405121,0.0400846004,0.1600294113,262143
1777399851.2687134743,0.0281300563,0.0298179835,0.0982896239,0.0969563989,0.0387024920,0.0018779322,4.0900001526,4.0909090042,4.0925745964,0.0000000000,0.0000000000,0.0000000000,0.0000000000,-0.0072076921,-0.0007875923,0.0027351901,0.0054317834,-0.0984145403,-0.0052340031,-0.0628537685,-0.1845738143,0.1606999040,-0.8980824410,0.2033010313,0.8768155699,0.0000000000,0.0000000000,0.0000000000,0.0000000000,0.0000000000,0.1421059817,0.0000000000,0.0000000000,0.0000000000,0.0000000000,0.0000000000,0.0000000000,0.0000000000,0.0000000000,0.0000000000,0.0000000000,0.0000000000,0.0000000000,-0.0000000000,0.0000000000,0.0000000000,-0.0000000000,0.0000000000,0.0000000000,-38.0409927368,15.9870700836,0.0000000000,0.0450882912,0.1350665092,0.0350906849,0.0251026154,0.0450484753,0.0650751591,0.0650525093,0.0650386810,0.0150566101,0.0650265217,0.0000603199,0.0450189114,0.0000369549,0.0350675583,0.0000228882,0.1750564575,262143
1777399851.2738661766,0.0281300563,0.0298179835,0.0982896239,0.0969563989,0.0387024920,0.0018779322,4.0900001526,4.0909090042,4.0925745964,0.0000000000,0.0000000000,0.0000000000,0.0000000000,-0.0072076921,-0.0007875923,0.0027351901,0.0054317834,-0.0984145403,-0.0052340031,-0.0628537685,-0.1845738143,0.1606999040,-0.8980824410,0.2033010313,0.8768155699,0.0000000000,0.0000000000,0.0000000000,0.0000000000,0.0000000000,0.1421059817,0.0000000000,0.0000000000,0.0000000000,0.0000000000,0.0000000000,0.0000000000,0.0000000000,0.0000000000,0.0000000000,0.0000000000,0.0000000000,0.0000000000,-0.0000000000,0.0000000000,0.0000000000,-0.0000000000,0.0000000000,0.0000000000,-38.0409927368,15.9870700836,0.0000000000,0.0502409935,0.1402192116,0.0402433872,0.0302553177,0.0502011776,0.0702278614,0.0702052116,0.0701913834,0.0202093124,0.0701792240,0.0052130222,0.0000312328,0.0051896572,0.0402202606,0.0051755905,0.1802091599,262143
1777399851.2837023735,0.0277041476,0.0297889728,0.0984454975,0.0886401620,0.0387099625,0.0017169669,4.0900001526,4.0909090042,4.0924696922,0.0000000000,0.0000000000,0.0000000000,0.0000000000,-0.0072076921,-0.0007875923,0.0027351901,0.0054317834,-0.0984145403,-0.0052340031,-0.0628537685,-0.1845738143,0.1606999040,-0.8980824410,0.2033010313,0.8768155699,0.0000000000,0.0000000000,0.0000000000,0.0000000000,0.0000000000,0.1421059817,0.0000000000,0.0000000000,0.0000000000,0.0000000000,0.0000000000,0.0000000000,0.0000000000,0.0000000000,0.0000000000,0.0000000000,0.0000000000,0.0000000000,-0.0000000000,0.0000000000,0.0000000000,-0.0000000000,0.0000000000,0.0000000000,-38.0409927368,15.9870700836,0.0000000000,0.0000867844,0.1500554085,0.0000417233,0.0400915146,0.0600373745,0.0800640583,0.0800414085,0.0800275803,0.0300455093,0.0800154209,0.0150492191,0.0098674297,0.0150258541,0.0000236034,0.0150117874,0.1900453568,262143
1777399851.2942113876,0.0277041476,0.0297889728,0.0984454975,0.0886401620,0.0387099625,0.0017169669,4.0900001526,4.0909090042,4.0924696922,0.0000000000,0.0000000000,0.0000000000,0.0000000000,-0.0072076921,-0.0007875923,0.0027351901,0.0054317834,-0.0984145403,-0.0052340031,0.1882109791,-0.3121929169,0.1569894105,2.7743679540,-1.4102431823,-0.0410024673,0.0000000000,0.0000000000,0.0000000000,0.0000000000,0.0000000000,0.1421059817,0.0000000000,0.0000000000,0.0000000000,0.0000000000,0.0000000000,0.0000000000,0.0000000000,0.0000000000,0.0000000000,0.0000000000,0.0000000000,0.0000000000,-0.0000000000,0.0000000000,0.0000000000,-0.0000000000,0.0000000000,0.0000000000,-38.0409927368,15.9870700836,0.0000000000,0.0105957985,0.1605644226,0.0105507374,0.0000932217,0.0705463886,0.0905730724,0.0000560284,0.0000381470,0.0405545235,0.0905244350,0.0255582333,0.0203764439,0.0255348682,0.0105326176,0.0255208015,0.0000245571,262143
1777399851.3036727905,0.0277041476,0.0297889728,0.0984454975,0.0886401620,0.0387099625,0.0017169669,4.0900001526,4.0909090042,4.0924696922,0.0000000000,0.0000000000,0.0000000000,0.0000000000,-0.0072076921,-0.0007875923,0.0027351901,0.0054317834,-0.0984145403,-0.0052340031,0.1882109791,-0.3121929169,0.1569894105,2.7743679540,-1.4102431823,-0.0410024673,0.0000000000,0.0000000000,0.0000000000,0.0000000000,0.0000000000,0.1421059817,0.0000000000,0.0000000000,0.0000000000,0.0000000000,0.0000000000,0.0000000000,0.0000000000,0.0000000000,0.0000000000,0.0000000000,0.0000000000,0.0000000000,-0.0000000000,0.0000000000,0.0000000000,-0.0000000000,0.0000000000,0.0000000000,-31.5548954010,17.1264991760,0.0000000000,0.0200572014,0.1700258255,0.0200121403,0.0095546246,0.0800077915,0.1000344753,0.0095174313,0.0094995499,0.0500159264,0.0000274181,0.0350196362,0.0298378468,0.0349962711,0.0199940205,0.0349822044,0.0094859600,262143
1777399851.3137285709,0.0277041476,0.0297889728,0.0984454975,0.0886401620,0.0387099625,0.0017169669,4.0900001526,4.0909090042,4.0924696922,0.0000000000,0.0000000000,0.0000000000,0.0000000000,-0.0106556285,-0.0014066781,0.0039760806,0.0079052811,-0.0820915177,-0.0025728345,0.1882109791,-0.3121929169,0.1569894105,2.7743679540,-1.4102431823,-0.0410024673,0.0000000000,0.0000000000,0.0000000000,0.0000000000,0.0000000000,0.1421059817,0.0000000000,0.0000000000,0.0000000000,0.0000000000,0.0000000000,0.0000000000,0.0000000000,0.0000000000,0.0000000000,0.0000000000,0.0000000000,0.0000000000,-0.0000000000,0.0000000000,0.0000000000,-0.0000000000,0.0000000000,0.0000000000,-31.5548954010,17.1264991760,0.0000000000,0.0301129818,0.1800816059,0.0300679207,0.0196104050,0.0000948906,0.0000681877,0.0195732117,0.0195553303,0.0600717068,0.0100831985,0.0450754166,0.0398936272,0.0000450611,0.0300498009,0.0000231266,0.0195417404,262143
1777399851.3237073421,0.0271949135,0.0297384653,0.0986345261,0.0803254476,0.0387167626,0.0015560013,4.0900001526,4.0909090042,4.0924696922,0.0000000000,0.0000000000,0.0000000000,0.0000000000,-0.0106556285,-0.0014066781,0.0039760806,0.0079052811,-0.0820915177,-0.0025728345,0.1882109791,-0.3121929169,0.1569894105,2.7743679540,-1.4102431823,-0.0410024673,0.0000000000,0.0000000000,0.0000000000,0.0000000000,0.0000000000,0.1421059817,0.0000000000,0.0000000000,0.0000000000,0.0000000000,0.0000000000,0.0000000000,0.0000000000,0.0000000000,0.0000000000,0.0000000000,0.0000000000,0.0000000000,-0.0000000000,0.0000000000,0.0000000000,-0.0000000000,0.0000000000,0.0000000000,-31.5548954010,17.1264991760,0.0000000000,0.0001256466,0.1900603771,0.0400466919,0.0295891762,0.0100736618,0.0100469589,0.0295519829,0.0295341015,0.0700504780,0.0200619698,0.0000915527,0.0000784397,0.0100238323,0.0400285721,0.0100018978,0.0295205116,262143
1777399851.3335957527,0.0271949135,0.0297384653,0.0986345261,0.0803254476,0.0387167626,0.0015560013,4.0900001526,4.0909090042,4.0925097466,0.0000000000,0.0000000000,0.0000000000,0.0000000000,-0.0106556285,-0.0014066781,0.0039760806,0.0079052811,-0.0820915177,-0.0025728345,0.1882109791,-0.3121929169,0.1569894105,2.7743679540,-1.4102431823,-0.0410024673,0.0000000000,0.0000000000,0.0000000000,0.0000000000,0.0000000000,0.1421059817,0.0000000000,0.0000000000,0.0000000000,0.0000000000,0.0000000000,0.0000000000,0.0000000000,0.0000000000,0.0000000000,0.0000000000,0.0000000000,0.0000000000,-0.0000000000,0.0000000000,0.0000000000,-0.0000000000,0.0000000000,0.0000000000,-31.5548954010,17.1264991760,0.0000000000,0.0100140572,0.1999487877,0.0000283718,0.0394775867,0.0199620724,0.0199353695,0.0394403934,0.0394225121,0.0799388885,0.0299503803,0.0099799633,0.0099668503,0.0199122429,0.0000152588,0.0198903084,0.0394089222,262143
1777399851.3435640335,0.0271949135,0.0297384653,0.0986345261,0.0803254476,0.0387167626,0.0015560013,4.0900001526,4.0909090042,4.0925097466,0.0000000000,0.0000000000,0.0000000000,0.0000000000,-0.0106556285,-0.0014066781,0.0039760806,0.0079052811,-0.0820915177,-0.0025728345,0.1882109791,-0.3121929169,0.1569894105,2.7743679540,-1.4102431823,-0.0410024673,0.0000000000,0.0000000000,0.0000000000,0.0000000000,0.0000000000,0.1421059817,0.0000000000,0.0000000000,0.0000000000,0.0000000000,0.0000000000,0.0000000000,0.0000000000,0.0000000000,0.0000000000,0.0000000000,0.0000000000,0.0000000000,-0.0000000000,0.0000000000,0.0000000000,-0.0000000000,0.0000000000,0.0000000000,-31.5548954010,17.1264991760,0.0000000000,0.0199823380,0.2099170685,0.0099966526,0.0000133514,0.0299303532,0.0299036503,0.0494086742,0.0493907928,0.0899071693,0.0399186611,0.0199482441,0.0199351311,0.0298805237,0.0099835396,0.0298585892,0.0493772030,262143
1777399851.3535501957,0.0271949135,0.0297384653,0.0986345261,0.0803254476,0.0387167626,0.0015560013,4.0900001526,4.0909090042,4.0925097466,0.0000000000,0.0000000000,0.0000000000,0.0000000000,-0.0106556285,-0.0014066781,0.0039760806,0.0079052811,-0.0820915177,-0.0025728345,0.1882109791,-0.3121929169,0.1569894105,2.7743679540,-1.4102431823,-0.0410024673,0.0000000000,0.0000000000,0.0000000000,0.0000000000,0.0000000000,0.1406648308,0.0000000000,0.0000000000,0.0000000000,0.0000000000,0.0000000000,0.0000000000,0.0000000000,0.0000000000,0.0000000000,0.0000000000,0.0000000000,0.0000000000,-0.0000000000,0.0000000000,0.0000000000,-0.0000000000,0.0000000000,0.0000000000,-31.5548954010,17.1264991760,0.0000000000,0.0299685001,0.2199032307,0.0199828148,0.0099995136,0.0399165154,0.0398898125,0.0593948364,0.0593769550,0.0000123978,0.0499048233,0.0299344063,0.0299212933,0.0398666859,0.0199697018,0.0398447514,0.0593633652,262143
1777399851.3635542393,0.0271949135,0.0297384653,0.0986345261,0.0803254476,0.0387167626,0.0015560013,4.0900001526,4.0909090042,4.0925097466,0.0000000000,0.0000000000,0.0000000000,0.0000000000,-0.0106556285,-0.0014066781,0.0039760806,0.0079052811,-0.0820915177,-0.0025728345,0.1882109791,-0.3121929169,0.1569894105,2.7743679540,-1.4102431823,-0.0410024673,0.0000000000,0.0000000000,0.0000000000,0.0000000000,0.0000000000,0.1406648308,0.0000000000,0.0000000000,0.0000000000,0.0000000000,0.0000000000,0.0000000000,0.0000000000,0.0000000000,0.0000000000,0.0000000000,0.0000000000,0.0000000000,-0.0000000000,0.0000000000,0.0000000000,-0.0000000000,0.0000000000,0.0000000000,-31.5548954010,17.1264991760,0.0000000000,0.0399725437,0.2299072742,0.0299868584,0.0200035572,0.0499205589,0.0498938560,0.0693988800,0.0693809986,0.0100164413,0.0599088669,0.0399384499,0.0399253368,0.0000195503,0.0299737453,0.0000109673,0.0693674088,262143
1777399851.3735780716,0.0288174395,0.0299972203,0.0980641320,0.0720181322,0.0414891957,0.0014948474,4.0900001526,4.0909090042,4.0925097466,0.0000000000,0.0000000000,0.0000000000,0.0000000000,-0.0106556285,-0.0014066781,0.0039760806,0.0079052811,-0.0820915177,-0.0025728345,0.1882109791,-0.3121929169,0.1569894105,2.7743679540,-1.4102431823,-0.0410024673,0.0000000000,0.0000000000,0.0000000000,0.0000000000,0.0000000000,0.1406648308,0.0000000000,0.0000000000,0.0000000000,0.0000000000,0.0000000000,0.0000000000,0.0000000000,0.0000000000,0.0000000000,0.0000000000,0.0000000000,0.0000000000,-0.0000000000,0.0000000000,0.0000000000,-0.0000000000,0.0000000000,0.0000000000,-31.5548954010,17.1264991760,0.0000000000,0.0000336170,0.2399311066,0.0400106907,0.0300273895,0.0599443913,0.0599176884,0.0794227123,0.0794048309,0.0200402737,0.0699326992,0.0000150204,0.0000092983,0.0100433826,0.0399975777,0.0100347996,0.0793912411,262143
1777399851.3835217953,0.0288174395,0.0299972203,0.0980641320,0.0720181322,0.0414891957,0.0014948474,4.0900001526,4.0909090042,4.0924592018,0.0000000000,0.0000000000,0.0000000000,0.0000000000,-0.0106556285,-0.0014066781,0.0039760806,0.0079052811,-0.0820915177,-0.0025728345,0.1882109791,-0.3121929169,0.1569894105,2.7743679540,-1.4102431823,-0.0410024673,0.0000000000,0.0000000000,0.0000000000,0.0000000000,0.0000000000,0.1406648308,0.0000000000,0.0000000000,0.0000000000,0.0000000000,0.0000000000,0.0000000000,0.0000000000,0.0000000000,0.0000000000,0.0000000000,0.0000000000,0.0000000000,-0.0000000000,0.0000000000,0.0000000000,-0.0000000000,0.0000000000,0.0000000000,-31.5548954010,17.1264991760,0.0000000000,0.0099773407,0.2498748302,0.0000202656,0.0399711132,0.0698881149,0.0698614120,0.0893664360,0.0000138283,0.0299839973,0.0798764229,0.0099587440,0.0099530220,0.0199871063,0.0000104904,0.0199785233,0.0893349648,262143
