t_sec,pose_x,pose_y,pose_z,pose_roll,pose_pitch,pose_yaw,status_battery_voltage,raw_battery_voltage,filt_battery_voltage,cmd_x,cmd_y,cmd_z,cmd_yaw,est_vx,est_vy,est_vz,est_ax,est_ay,est_az,gyro_x,gyro_y,gyro_z,angAcc_x,angAcc_y,angAcc_z,velDes_vx,velDes_vy,velDes_vz,attDes_roll,attDes_pitch,attDes_yaw,motor_f1,motor_f2,motor_f3,motor_f4,motor_f1_scaled,motor_f2_scaled,motor_f3_scaled,motor_f4_scaled,bodyInFx,bodyInFy,bodyInFz,droneWorldFx,droneWorldFy,droneWorldFz,droneWorldFx_scaled,droneWorldFy_scaled,droneWorldFz_scaled,zero_bias_count,rateDes_roll,rateDes_pitch,rateDes_yaw,age_pose,age_status,age_cf_voltage,age_cmd_position,age_stateEstimate_velocity,age_stateEstimate_acc,age_gyro_feedback,age_vel_des,age_att_des,age_rate_des,age_cf_motor_force,age_cf_motor_force_scaled,age_cf_body_input_force,age_cf_world_force,age_cf_F_input_scaled,age_cf_zero_bias_dbg,validity_bitmask
1777391569.6969573498,nan,nan,nan,nan,nan,nan,nan,nan,nan,nan,nan,nan,nan,nan,nan,nan,nan,nan,nan,nan,nan,nan,nan,nan,nan,nan,nan,nan,nan,nan,nan,nan,nan,nan,nan,nan,nan,nan,nan,nan,nan,nan,nan,nan,nan,nan,nan,nan,nan,nan,nan,nan,inf,inf,inf,inf,inf,inf,inf,inf,inf,inf,inf,inf,inf,inf,inf,inf,1
1777391569.7071273327,0.0331409946,0.0320406966,0.0990873054,3.0160785558,0.4873212237,0.0001876066,nan,nan,nan,nan,nan,nan,nan,nan,nan,nan,nan,nan,nan,nan,nan,nan,nan,nan,nan,nan,nan,nan,nan,nan,nan,0.0000000000,0.0000000000,0.0000000000,0.0000000000,0.0000000000,0.0000000000,0.0000000000,0.0000000000,nan,nan,nan,nan,nan,nan,nan,nan,nan,nan,nan,nan,nan,0.0001008511,inf,inf,inf,inf,inf,inf,inf,inf,inf,0.0000174046,0.0000078678,inf,inf,inf,inf,12295
1777391569.7170028687,0.0331409946,0.0320406966,0.0990873054,3.0160785558,0.4873212237,0.0001876066,nan,3.9061584473,3.9050419331,nan,nan,nan,nan,nan,nan,nan,nan,nan,nan,nan,nan,nan,nan,nan,nan,nan,nan,nan,nan,nan,nan,0.0000000000,0.0000000000,0.0000000000,0.0000000000,0.0000000000,0.0000000000,0.0000000000,0.0000000000,nan,nan,nan,-0.0000000000,-0.0000000000,-0.0000000000,nan,nan,nan,nan,nan,nan,nan,0.0099763870,inf,0.0000147820,inf,inf,inf,inf,inf,inf,inf,0.0098929405,0.0098834038,inf,0.0000057220,inf,inf,45079
1777391569.7270050049,0.0331409946,0.0320406966,0.0990873054,3.0160785558,0.4873212237,0.0001876066,nan,3.9061584473,3.9050419331,nan,nan,nan,nan,nan,nan,nan,nan,nan,nan,-0.0325455479,0.4181127250,0.1185029000,nan,nan,nan,nan,nan,nan,nan,nan,nan,0.0000000000,0.0000000000,0.0000000000,0.0000000000,0.0000000000,0.0000000000,0.0000000000,0.0000000000,nan,nan,nan,-0.0000000000,-0.0000000000,-0.0000000000,nan,nan,nan,nan,nan,nan,nan,0.0199785233,inf,0.0100169182,inf,inf,inf,0.0000073910,inf,inf,inf,0.0198950768,0.0198855400,inf,0.0100078583,inf,inf,45335
1777391569.7370064259,0.0331409946,0.0320406966,0.0990873054,3.0160785558,0.4873212237,0.0001876066,nan,3.9061584473,3.9050419331,nan,nan,nan,nan,nan,nan,nan,-0.4813294411,-0.1280273944,-1.8664081097,-0.0325455479,0.4181127250,0.1185029000,nan,nan,nan,nan,nan,nan,nan,nan,nan,0.0000000000,0.0000000000,0.0000000000,0.0000000000,0.0000000000,0.0000000000,0.0000000000,0.0000000000,nan,nan,nan,-0.0000000000,-0.0000000000,-0.0000000000,nan,nan,nan,nan,-1125.6494140625,206.5623626709,0.0000000000,0.0299799442,inf,0.0200183392,inf,inf,0.0000145435,0.0100088120,inf,inf,0.0000064373,0.0298964977,0.0298869610,inf,0.0200092793,inf,inf,47511
1777391569.7469685078,0.0331409946,0.0320406966,0.0990873054,3.0160785558,0.4873212237,0.0001876066,nan,3.9061584473,3.9050419331,nan,nan,nan,nan,-0.0086179962,-0.0003891091,0.0036432697,-0.4813294411,-0.1280273944,-1.8664081097,-0.0325455479,0.4181127250,0.1185029000,nan,nan,nan,nan,nan,nan,nan,nan,nan,0.0000000000,0.0000000000,0.0000000000,0.0000000000,0.0000000000,0.0000000000,0.0000000000,0.0000000000,0.0000000000,0.0000000000,0.0000000000,-0.0000000000,-0.0000000000,-0.0000000000,-0.0000000000,-0.0000000000,-0.0000000000,nan,-1125.6494140625,206.5623626709,0.0000000000,0.0399420261,inf,0.0299804211,inf,0.0000221729,0.0099766254,0.0199708939,inf,inf,0.0099685192,0.0398585796,0.0398490429,0.0000138283,0.0299713612,0.0000064373,inf,129495
1777391569.7569792271,0.0327033848,0.0320505053,0.0991377681,3.0253854883,0.4558929594,0.0014704308,nan,3.9061584473,3.9050419331,nan,nan,nan,nan,-0.0086179962,-0.0003891091,0.0036432697,-0.4813294411,-0.1280273944,-1.8664081097,-0.0325455479,0.4181127250,0.1185029000,nan,nan,nan,nan,nan,nan,nan,nan,nan,0.0000000000,0.0000000000,0.0000000000,0.0000000000,0.0000000000,0.0000000000,0.0000000000,0.0000000000,0.0000000000,0.0000000000,0.0000000000,-0.0000000000,-0.0000000000,-0.0000000000,-0.0000000000,-0.0000000000,-0.0000000000,nan,-1125.6494140625,206.5623626709,0.0000000000,0.0000252724,inf,0.0399911404,inf,0.0100328922,0.0199873447,0.0299816132,inf,inf,0.0199792385,0.0000140667,0.0000064373,0.0100245476,0.0399820805,0.0100171566,inf,129495
1777391569.7669947147,0.0327033848,0.0320505053,0.0991377681,3.0253854883,0.4558929594,0.0014704308,nan,3.9061584473,3.9050569534,nan,nan,nan,nan,-0.0086179962,-0.0003891091,0.0036432697,-0.4813294411,-0.1280273944,-1.8664081097,-0.0325455479,0.4181127250,0.1185029000,nan,nan,nan,0.0000000000,0.0000000000,0.0000000000,nan,nan,nan,0.0000000000,0.0000000000,0.0000000000,0.0000000000,0.0000000000,0.0000000000,0.0000000000,0.0000000000,0.0000000000,0.0000000000,0.0000000000,-0.0000000000,-0.0000000000,-0.0000000000,-0.0000000000,-0.0000000000,-0.0000000000,nan,-1125.6494140625,206.5623626709,0.0000000000,0.0100407600,inf,0.0000231266,inf,0.0200483799,0.0300028324,0.0399971008,0.0000138283,inf,0.0299947262,0.0100295544,0.0100219250,0.0200400352,0.0000071526,0.0200326443,inf,130007
1777391569.7770509720,0.0327033848,0.0320505053,0.0991377681,3.0253854883,0.4558929594,0.0014704308,nan,3.9061584473,3.9050569534,nan,nan,nan,nan,-0.0086179962,-0.0003891091,0.0036432697,-0.4813294411,-0.1280273944,-1.8664081097,-0.0325455479,0.4181127250,0.1185029000,nan,nan,nan,0.0000000000,0.0000000000,0.0000000000,nan,nan,nan,0.0000000000,0.0000000000,0.0000000000,0.0000000000,0.0000000000,0.0000000000,0.0000000000,0.0000000000,0.0000000000,0.0000000000,0.0000000000,-0.0000000000,-0.0000000000,-0.0000000000,-0.0000000000,-0.0000000000,-0.0000000000,nan,-1125.6494140625,206.5623626709,0.0000000000,0.0200970173,inf,0.0100793839,inf,0.0301046371,0.0400590897,0.0500533581,0.0100700855,inf,0.0400509834,0.0200858116,0.0200781822,0.0300962925,0.0100634098,0.0300889015,inf,130007
1777391569.7870085239,0.0327033848,0.0320505053,0.0991377681,3.0253854883,0.4558929594,0.0014704308,nan,3.9061584473,3.9050569534,nan,nan,nan,nan,-0.0086179962,-0.0003891091,0.0036432697,-0.4813294411,-0.1280273944,-1.8664081097,-0.0325455479,0.4181127250,0.1185029000,nan,nan,nan,0.0000000000,0.0000000000,0.0000000000,0.0000000000,0.0000000000,0.0568133965,0.0000000000,0.0000000000,0.0000000000,0.0000000000,0.0000000000,0.0000000000,0.0000000000,0.0000000000,0.0000000000,0.0000000000,0.0000000000,-0.0000000000,-0.0000000000,-0.0000000000,-0.0000000000,-0.0000000000,-0.0000000000,nan,-1125.6494140625,206.5623626709,0.0000000000,0.0300545692,inf,0.0200369358,inf,0.0400621891,0.0500166416,0.0600109100,0.0200276375,0.0000083447,0.0500085354,0.0300433636,0.0300357342,0.0400538445,0.0200209618,0.0400464535,inf,131031
1777391569.7969701290,0.0327033848,0.0320505053,0.0991377681,3.0253854883,0.4558929594,0.0014704308,nan,3.9061584473,3.9050569534,nan,nan,nan,nan,-0.0086179962,-0.0003891091,0.0036432697,-0.4813294411,-0.1280273944,-1.8664081097,-0.0325455479,0.4181127250,0.1185029000,nan,nan,nan,0.0000000000,0.0000000000,0.0000000000,0.0000000000,0.0000000000,0.0568133965,0.0000000000,0.0000000000,0.0000000000,0.0000000000,0.0000000000,0.0000000000,0.0000000000,0.0000000000,0.0000000000,0.0000000000,0.0000000000,-0.0000000000,-0.0000000000,-0.0000000000,-0.0000000000,-0.0000000000,-0.0000000000,nan,-1125.6494140625,206.5623626709,0.0000000000,0.0400161743,inf,0.0299985409,inf,0.0500237942,0.0599782467,0.0699725151,0.0299892426,0.0099699497,0.0599701405,0.0400049686,0.0399973392,0.0000157356,0.0299825668,0.0000061989,inf,131031
1777391569.8069815636,0.0327033848,0.0320505053,0.0991377681,3.0253854883,0.4558929594,0.0014704308,nan,3.9061584473,3.9050569534,nan,nan,nan,nan,-0.0086179962,-0.0003891091,0.0036432697,-0.4813294411,-0.1280273944,-1.8664081097,-0.0325455479,0.4181127250,0.1185029000,nan,nan,nan,0.0000000000,0.0000000000,0.0000000000,0.0000000000,0.0000000000,0.0568133965,0.0000000000,0.0000000000,0.0000000000,0.0000000000,0.0000000000,0.0000000000,0.0000000000,0.0000000000,0.0000000000,0.0000000000,0.0000000000,-0.0000000000,-0.0000000000,-0.0000000000,-0.0000000000,-0.0000000000,-0.0000000000,nan,-1125.6494140625,206.5623626709,0.0000000000,0.0500276089,inf,0.0400099754,inf,0.0600352287,0.0699896812,0.0799839497,0.0400006771,0.0199813843,0.0699815750,0.0000166893,0.0000057220,0.0100271702,0.0399940014,0.0100176334,inf,131031
1777391569.8169617653,0.0336686186,0.0320061035,0.0990271792,3.0338407707,0.4244266615,-0.0005571221,nan,3.9008798599,3.9048435688,nan,nan,nan,nan,-0.0086179962,-0.0003891091,0.0036432697,-0.4813294411,-0.1280273944,-1.8664081097,-0.0325455479,0.4181127250,0.1185029000,nan,nan,nan,0.0000000000,0.0000000000,0.0000000000,0.0000000000,0.0000000000,0.0568133965,0.0000000000,0.0000000000,0.0000000000,0.0000000000,0.0000000000,0.0000000000,0.0000000000,0.0000000000,0.0000000000,0.0000000000,0.0000000000,-0.0000000000,-0.0000000000,-0.0000000000,-0.0000000000,-0.0000000000,-0.0000000000,nan,-1125.6494140625,206.5623626709,0.0000000000,0.0000174046,inf,0.0000061989,inf,0.0700154305,0.0799698830,0.0899641514,0.0499808788,0.0299615860,0.0799617767,0.0099968910,0.0099859238,0.0200073719,0.0499742031,0.0199978352,inf,131031
1777391569.8269572258,0.0336686186,0.0320061035,0.0990271792,3.0338407707,0.4244266615,-0.0005571221,nan,3.9008798599,3.9048435688,nan,nan,nan,nan,-0.0086179962,-0.0003891091,0.0036432697,-0.4813294411,-0.1280273944,-1.8664081097,-0.0325455479,0.4181127250,0.1185029000,nan,nan,nan,0.0000000000,0.0000000000,0.0000000000,0.0000000000,0.0000000000,0.0568133965,0.0000000000,0.0000000000,0.0000000000,0.0000000000,0.0000000000,0.0000000000,0.0000000000,0.0000000000,0.0000000000,0.0000000000,0.0000000000,-0.0000000000,-0.0000000000,-0.0000000000,-0.0000000000,-0.0000000000,-0.0000000000,nan,-1125.6494140625,206.5623626709,0.0000000000,0.0100128651,inf,0.0100016594,inf,0.0800108910,0.0899653435,0.0999596119,0.0599763393,0.0399570465,0.0899572372,0.0199923515,0.0199813843,0.0300028324,0.0000069141,0.0299932957,inf,131031
1777391569.8369636536,0.0336686186,0.0320061035,0.0990271792,3.0338407707,0.4244266615,-0.0005571221,nan,3.9008798599,3.9048435688,nan,nan,nan,nan,-0.0086179962,-0.0003891091,0.0036432697,-0.4813294411,-0.1280273944,-1.8664081097,0.0245095640,-0.0501725264,-0.0258110445,0.5189499071,-4.2593306598,-1.3126204735,0.0000000000,0.0000000000,0.0000000000,0.0000000000,0.0000000000,0.0568133965,0.0000000000,0.0000000000,0.0000000000,0.0000000000,0.0000000000,0.0000000000,0.0000000000,0.0000000000,0.0000000000,0.0000000000,0.0000000000,-0.0000000000,-0.0000000000,-0.0000000000,-0.0000000000,-0.0000000000,-0.0000000000,0.0000000000,-1132.2343750000,179.3089294434,0.0000000000,0.0200192928,inf,0.0200080872,inf,0.0900173187,0.0999717712,0.0000226498,0.0699827671,0.0499634743,0.0000133514,0.0299987793,0.0299878120,0.0400092602,0.0100133419,0.0399997234,0.0000059605,262103
1777391569.8469455242,0.0336686186,0.0320061035,0.0990271792,3.0338407707,0.4244266615,-0.0005571221,nan,3.9008798599,3.9048435688,nan,nan,nan,nan,-0.0086179962,-0.0003891091,0.0036432697,-0.4288666248,-0.1112937182,-1.8972570896,0.0245095640,-0.0501725264,-0.0258110445,0.5189499071,-4.2593306598,-1.3126204735,0.0000000000,0.0000000000,0.0000000000,0.0000000000,0.0000000000,0.0568133965,0.0000000000,0.0000000000,0.0000000000,0.0000000000,0.0000000000,0.0000000000,0.0000000000,0.0000000000,0.0000000000,0.0000000000,0.0000000000,-0.0000000000,-0.0000000000,-0.0000000000,-0.0000000000,-0.0000000000,-0.0000000000,0.0000000000,-1132.2343750000,179.3089294434,0.0000000000,0.0300011635,inf,0.0299899578,inf,0.0999991894,0.0000138283,0.0100045204,0.0799646378,0.0599453449,0.0099952221,0.0399806499,0.0399696827,0.0499911308,0.0199952126,0.0000057220,0.0099878311,262103
1777391569.8569552898,0.0336686186,0.0320061035,0.0990271792,3.0338407707,0.4244266615,-0.0005571221,nan,3.9008798599,3.9048435688,nan,nan,nan,nan,-0.0044652382,-0.0002485030,0.0014007341,-0.4288666248,-0.1112937182,-1.8972570896,0.0245095640,-0.0501725264,-0.0258110445,0.5189499071,-4.2593306598,-1.3126204735,0.0000000000,0.0000000000,0.0000000000,0.0000000000,0.0000000000,0.0568133965,0.0000000000,0.0000000000,0.0000000000,0.0000000000,0.0000000000,0.0000000000,0.0000000000,0.0000000000,0.0000000000,0.0000000000,0.0000000000,-0.0000000000,-0.0000000000,-0.0000000000,-0.0000000000,-0.0000000000,-0.0000000000,0.0000000000,-1132.2343750000,179.3089294434,0.0000000000,0.0400109291,inf,0.0399997234,inf,0.0000267029,0.0100235939,0.0200142860,0.0000188351,0.0699551105,0.0200049877,0.0000119209,0.0499794483,0.0000050068,0.0300049782,0.0100154877,0.0199975967,262103
1777391569.8669645786,0.0339527577,0.0320010930,0.0990059748,3.0403307417,0.3990136705,0.0021250452,nan,3.9061584473,3.9047942162,nan,nan,nan,nan,-0.0044652382,-0.0002485030,0.0014007341,-0.4288666248,-0.1112937182,-1.8972570896,0.0245095640,-0.0501725264,-0.0258110445,0.5189499071,-4.2593306598,-1.3126204735,0.0000000000,0.0000000000,0.0000000000,0.0000000000,0.0000000000,0.0568133965,0.0000000000,0.0000000000,0.0000000000,0.0000000000,0.0000000000,0.0000000000,0.0000000000,0.0000000000,0.0000000000,0.0000000000,0.0000000000,-0.0000000000,-0.0000000000,-0.0000000000,-0.0000000000,-0.0000000000,-0.0000000000,0.0000000000,-1132.2343750000,179.3089294434,0.0000000000,0.0000245571,inf,0.0000128746,inf,0.0100359917,0.0200328827,0.0300235748,0.0100281239,0.0799643993,0.0300142765,0.0100212097,0.0000054836,0.0100142956,0.0400142670,0.0200247765,0.0300068855,262103
1777391569.8769342899,0.0339527577,0.0320010930,0.0990059748,3.0403307417,0.3990136705,0.0021250452,nan,3.9061584473,3.9047942162,nan,nan,nan,nan,-0.0044652382,-0.0002485030,0.0014007341,-0.4288666248,-0.1112937182,-1.8972570896,0.0245095640,-0.0501725264,-0.0258110445,0.5189499071,-4.2593306598,-1.3126204735,0.0000000000,0.0000000000,0.0000000000,0.0000000000,0.0000000000,0.0568133965,0.0000000000,0.0000000000,0.0000000000,0.0000000000,0.0000000000,0.0000000000,0.0000000000,0.0000000000,0.0000000000,0.0000000000,0.0000000000,-0.0000000000,-0.0000000000,-0.0000000000,-0.0000000000,-0.0000000000,-0.0000000000,0.0000000000,-1132.2343750000,179.3089294434,0.0000000000,0.0099942684,inf,0.0099825859,inf,0.0200057030,0.0300025940,0.0399932861,0.0199978352,0.0899341106,0.0399839878,0.0199909210,0.0099751949,0.0199840069,0.0000059605,0.0299944878,0.0399765968,262103
1777391569.8869349957,0.0339527577,0.0320010930,0.0990059748,3.0403307417,0.3990136705,0.0021250452,nan,3.9061584473,3.9047942162,nan,nan,nan,nan,-0.0044652382,-0.0002485030,0.0014007341,-0.4288666248,-0.1112937182,-1.8972570896,0.0245095640,-0.0501725264,-0.0258110445,0.5189499071,-4.2593306598,-1.3126204735,0.0000000000,0.0000000000,0.0000000000,0.0000000000,0.0000000000,0.0625294521,0.0000000000,0.0000000000,0.0000000000,0.0000000000,0.0000000000,0.0000000000,0.0000000000,0.0000000000,0.0000000000,0.0000000000,0.0000000000,-0.0000000000,-0.0000000000,-0.0000000000,-0.0000000000,-0.0000000000,-0.0000000000,0.0000000000,-1132.2343750000,179.3089294434,0.0000000000,0.0199949741,inf,0.0199832916,inf,0.0300064087,0.0400032997,0.0499939919,0.0299985409,0.0000064373,0.0499846935,0.0299916267,0.0199759007,0.0299847126,0.0100066662,0.0399951935,0.0499773026,262103
1777391569.8970255852,0.0339527577,0.0320010930,0.0990059748,3.0403307417,0.3990136705,0.0021250452,nan,3.9061584473,3.9047942162,nan,nan,nan,nan,-0.0044652382,-0.0002485030,0.0014007341,-0.4288666248,-0.1112937182,-1.8972570896,0.0245095640,-0.0501725264,-0.0258110445,0.5189499071,-4.2593306598,-1.3126204735,0.0000000000,0.0000000000,0.0000000000,0.0000000000,0.0000000000,0.0625294521,0.0000000000,0.0000000000,0.0000000000,0.0000000000,0.0000000000,0.0000000000,0.0000000000,0.0000000000,0.0000000000,0.0000000000,0.0000000000,-0.0000000000,-0.0000000000,-0.0000000000,-0.0000000000,-0.0000000000,-0.0000000000,0.0000000000,-1132.2343750000,179.3089294434,0.0000000000,0.0300855637,inf,0.0300738811,inf,0.0400969982,0.0500938892,0.0600845814,0.0400891304,0.0100970268,0.0600752831,0.0400822163,0.0300664902,0.0000236034,0.0200972557,0.0000133514,0.0600678921,262103
1777391569.9071569443,0.0339135043,0.0320000909,0.0990109518,3.0485897064,0.3677613849,-0.0004010490,nan,3.9061584473,3.9047942162,nan,nan,nan,nan,-0.0044652382,-0.0002485030,0.0014007341,-0.4288666248,-0.1112937182,-1.8972570896,0.0245095640,-0.0501725264,-0.0258110445,0.5189499071,-4.2593306598,-1.3126204735,0.0000000000,0.0000000000,0.0000000000,0.0000000000,0.0000000000,0.0625294521,0.0000000000,0.0000000000,0.0000000000,0.0000000000,0.0000000000,0.0000000000,0.0000000000,0.0000000000,0.0000000000,0.0000000000,0.0000000000,-0.0000000000,-0.0000000000,-0.0000000000,-0.0000000000,-0.0000000000,-0.0000000000,0.0000000000,-1132.2343750000,179.3089294434,0.0000000000,0.0000734329,inf,0.0402052402,inf,0.0502283573,0.0602252483,0.0702159405,0.0502204895,0.0202283859,0.0702066422,0.0000350475,0.0000157356,0.0101549625,0.0302286148,0.0101447105,0.0701992512,262103
1777391569.9171047211,0.0339135043,0.0320000909,0.0990109518,3.0485897064,0.3677613849,-0.0004010490,nan,3.9008798599,3.9047508240,nan,nan,nan,nan,-0.0044652382,-0.0002485030,0.0014007341,-0.4288666248,-0.1112937182,-1.8972570896,0.0245095640,-0.0501725264,-0.0258110445,0.5189499071,-4.2593306598,-1.3126204735,0.0000000000,0.0000000000,0.0000000000,0.0000000000,0.0000000000,0.0625294521,0.0000000000,0.0000000000,0.0000000000,0.0000000000,0.0000000000,0.0000000000,0.0000000000,0.0000000000,0.0000000000,0.0000000000,0.0000000000,-0.0000000000,-0.0000000000,-0.0000000000,-0.0000000000,-0.0000000000,-0.0000000000,0.0000000000,-1132.2343750000,179.3089294434,0.0000000000,0.0100212097,inf,0.0000426769,inf,0.0601761341,0.0701730251,0.0801637173,0.0601682663,0.0301761627,0.0801544189,0.0099828243,0.0099635124,0.0201027393,0.0000176430,0.0200924873,0.0801470280,262103
1777391569.9271144867,0.0339135043,0.0320000909,0.0990109518,3.0485897064,0.3677613849,-0.0004010490,nan,3.9008798599,3.9047508240,nan,nan,nan,nan,-0.0044652382,-0.0002485030,0.0014007341,-0.4288666248,-0.1112937182,-1.8972570896,0.0245095640,-0.0501725264,-0.0258110445,0.5189499071,-4.2593306598,-1.3126204735,0.0000000000,0.0000000000,0.0000000000,0.0000000000,0.0000000000,0.0625294521,0.0000000000,0.0000000000,0.0000000000,0.0000000000,0.0000000000,0.0000000000,0.0000000000,0.0000000000,0.0000000000,0.0000000000,0.0000000000,-0.0000000000,-0.0000000000,-0.0000000000,-0.0000000000,-0.0000000000,-0.0000000000,0.0000000000,-1132.2343750000,179.3089294434,0.0000000000,0.0200309753,inf,0.0100524426,inf,0.0701858997,0.0801827908,0.0901734829,0.0701780319,0.0401859283,0.0901641846,0.0199925900,0.0199732780,0.0301125050,0.0100274086,0.0301022530,0.0901567936,262103
1777391569.9370703697,0.0339135043,0.0320000909,0.0990109518,3.0485897064,0.3677613849,-0.0004010490,nan,3.9008798599,3.9047508240,nan,nan,nan,nan,-0.0044652382,-0.0002485030,0.0014007341,-0.4288666248,-0.1112937182,-1.8972570896,0.0773053467,-0.2380703837,-0.0878738314,0.5273874749,-1.8769487153,-0.6199574056,0.0000000000,0.0000000000,0.0000000000,0.0000000000,0.0000000000,0.0625294521,0.0000000000,0.0000000000,0.0000000000,0.0000000000,0.0000000000,0.0000000000,0.0000000000,0.0000000000,0.0000000000,0.0000000000,0.0000000000,-0.0000000000,-0.0000000000,-0.0000000000,-0.0000000000,-0.0000000000,-0.0000000000,0.0000000000,-1132.2343750000,179.3089294434,0.0000000000,0.0299868584,inf,0.0200083256,inf,0.0801417828,0.0901386738,0.0000212193,0.0801339149,0.0501418114,0.1001200676,0.0299484730,0.0299291611,0.0400683880,0.0199832916,0.0400581360,0.1001126766,262103
1777391569.9471526146,0.0339135043,0.0320000909,0.0990109518,3.0485897064,0.3677613849,-0.0004010490,nan,3.9008798599,3.9047508240,nan,nan,nan,nan,-0.0063806167,-0.0001240767,0.0019094225,-0.3773133755,-0.0936290845,-1.9207446575,0.0773053467,-0.2380703837,-0.0878738314,0.5273874749,-1.8769487153,-0.6199574056,0.0000000000,0.0000000000,0.0000000000,0.0000000000,0.0000000000,0.0625294521,0.0000000000,0.0000000000,0.0000000000,0.0000000000,0.0000000000,0.0000000000,0.0000000000,0.0000000000,0.0000000000,0.0000000000,0.0000000000,-0.0000000000,-0.0000000000,-0.0000000000,-0.0000000000,-0.0000000000,-0.0000000000,0.0000000000,-1137.6420898438,155.5499267578,0.0000000000,0.0400691032,inf,0.0300905704,inf,0.0001029968,0.0000796318,0.0101034641,0.0000631809,0.0602240562,0.0000476837,0.0400307178,0.0400114059,0.0000314713,0.0300655365,0.0000154972,0.1101949215,262103
1777391569.9571020603,0.0338585265,0.0320009477,0.0990126356,3.0577542063,0.3396701258,0.0024768312,nan,3.9008798599,3.9047508240,nan,nan,nan,nan,-0.0063806167,-0.0001240767,0.0019094225,-0.3773133755,-0.0936290845,-1.9207446575,0.0773053467,-0.2380703837,-0.0878738314,0.5273874749,-1.8769487153,-0.6199574056,0.0000000000,0.0000000000,0.0000000000,0.0000000000,0.0000000000,0.0625294521,0.0000000000,0.0000000000,0.0000000000,0.0000000000,0.0000000000,0.0000000000,0.0000000000,0.0000000000,0.0000000000,0.0000000000,0.0000000000,-0.0000000000,-0.0000000000,-0.0000000000,-0.0000000000,-0.0000000000,-0.0000000000,0.0000000000,-1137.6420898438,155.5499267578,0.0000000000,0.0000655651,inf,0.0400400162,inf,0.0100524426,0.0100290775,0.0200529099,0.0100126266,0.0701735020,0.0099971294,0.0000326633,0.0000140667,0.0099809170,0.0400149822,0.0099649429,0.1201443672,262103
1777391569.9670262337,0.0338585265,0.0320009477,0.0990126356,3.0577542063,0.3396701258,0.0024768312,nan,3.9061584473,3.9048328400,nan,nan,nan,nan,-0.0063806167,-0.0001240767,0.0019094225,-0.3773133755,-0.0936290845,-1.9207446575,0.0773053467,-0.2380703837,-0.0878738314,0.5273874749,-1.8769487153,-0.6199574056,0.0000000000,0.0000000000,0.0000000000,0.0000000000,0.0000000000,0.0625294521,0.0000000000,0.0000000000,0.0000000000,0.0000000000,0.0000000000,0.0000000000,0.0000000000,0.0000000000,0.0000000000,0.0000000000,0.0000000000,-0.0000000000,-0.0000000000,-0.0000000000,-0.0000000000,-0.0000000000,-0.0000000000,0.0000000000,-1137.6420898438,155.5499267578,0.0000000000,0.0099897385,inf,0.0000236034,inf,0.0199766159,0.0199532509,0.0299770832,0.0199368000,0.0800976753,0.0199213028,0.0099568367,0.0099382401,0.0199050903,0.0499391556,0.0198891163,0.1300685406,262103
1777391569.9770386219,0.0338585265,0.0320009477,0.0990126356,3.0577542063,0.3396701258,0.0024768312,nan,3.9061584473,3.9048328400,nan,nan,nan,nan,-0.0063806167,-0.0001240767,0.0019094225,-0.3773133755,-0.0936290845,-1.9207446575,0.0773053467,-0.2380703837,-0.0878738314,0.5273874749,-1.8769487153,-0.6199574056,0.0000000000,0.0000000000,0.0000000000,0.0000000000,0.0000000000,0.0625294521,0.0000000000,0.0000000000,0.0000000000,0.0000000000,0.0000000000,0.0000000000,0.0000000000,0.0000000000,0.0000000000,0.0000000000,0.0000000000,-0.0000000000,-0.0000000000,-0.0000000000,-0.0000000000,-0.0000000000,-0.0000000000,0.0000000000,-1137.6420898438,155.5499267578,0.0000000000,0.0200021267,inf,0.0100359917,inf,0.0299890041,0.0299656391,0.0399894714,0.0299491882,0.0901100636,0.0299336910,0.0199692249,0.0199506283,0.0299174786,0.0000236034,0.0299015045,0.1400809288,262103
1777391569.9870657921,0.0338585265,0.0320009477,0.0990126356,3.0577542063,0.3396701258,0.0024768312,nan,3.9061584473,3.9048328400,nan,nan,nan,nan,-0.0063806167,-0.0001240767,0.0019094225,-0.3773133755,-0.0936290845,-1.9207446575,0.0773053467,-0.2380703837,-0.0878738314,0.5273874749,-1.8769487153,-0.6199574056,0.0000000000,0.0000000000,0.0000000000,0.0000000000,0.0000000000,0.0621738881,0.0000000000,0.0000000000,0.0000000000,0.0000000000,0.0000000000,0.0000000000,0.0000000000,0.0000000000,0.0000000000,0.0000000000,0.0000000000,-0.0000000000,-0.0000000000,-0.0000000000,-0.0000000000,-0.0000000000,-0.0000000000,0.0000000000,-1137.6420898438,155.5499267578,0.0000000000,0.0300292969,inf,0.0200631618,inf,0.0400161743,0.0399928093,0.0500166416,0.0399763584,0.0000350475,0.0399608612,0.0299963951,0.0299777985,0.0399446487,0.0100507736,0.0000140667,0.1501080990,262103
1777391569.9970366955,0.0338585265,0.0320009477,0.0990126356,3.0577542063,0.3396701258,0.0024768312,nan,3.9061584473,3.9048328400,nan,nan,nan,nan,-0.0063806167,-0.0001240767,0.0019094225,-0.3773133755,-0.0936290845,-1.9207446575,0.0773053467,-0.2380703837,-0.0878738314,0.5273874749,-1.8769487153,-0.6199574056,0.0000000000,0.0000000000,0.0000000000,0.0000000000,0.0000000000,0.0621738881,0.0000000000,0.0000000000,0.0000000000,0.0000000000,0.0000000000,0.0000000000,0.0000000000,0.0000000000,0.0000000000,0.0000000000,0.0000000000,-0.0000000000,-0.0000000000,-0.0000000000,-0.0000000000,-0.0000000000,-0.0000000000,0.0000000000,-1137.6420898438,155.5499267578,0.0000000000,0.0400002003,inf,0.0300340652,inf,0.0499870777,0.0499637127,0.0599875450,0.0499472618,0.0100059509,0.0499317646,0.0399672985,0.0399487019,0.0000278950,0.0200216770,0.0099849701,0.1600790024,262103
1777391570.0070693493,0.0338393599,0.0320024639,0.0990072414,3.0633033900,0.3199276940,0.0013895747,nan,3.9061584473,3.9048328400,nan,nan,nan,nan,-0.0063806167,-0.0001240767,0.0019094225,-0.3773133755,-0.0936290845,-1.9207446575,0.0773053467,-0.2380703837,-0.0878738314,0.5273874749,-1.8769487153,-0.6199574056,0.0000000000,0.0000000000,0.0000000000,0.0000000000,0.0000000000,0.0621738881,0.0000000000,0.0000000000,0.0000000000,0.0000000000,0.0000000000,0.0000000000,0.0000000000,0.0000000000,0.0000000000,0.0000000000,0.0000000000,-0.0000000000,-0.0000000000,-0.0000000000,-0.0000000000,-0.0000000000,-0.0000000000,0.0000000000,-1137.6420898438,155.5499267578,0.0000000000,0.0000555515,inf,0.0400667191,inf,0.0600197315,0.0599963665,0.0700201988,0.0599799156,0.0200386047,0.0599644184,0.0000257492,0.0000114441,0.0100605488,0.0300543308,0.0200176239,0.1701116562,262103
1777391570.0170283318,0.0338393599,0.0320024639,0.0990072414,3.0633033900,0.3199276940,0.0013895747,nan,3.9008798599,3.9046354294,nan,nan,nan,nan,-0.0063806167,-0.0001240767,0.0019094225,-0.3773133755,-0.0936290845,-1.9207446575,0.0773053467,-0.2380703837,-0.0878738314,0.5273874749,-1.8769487153,-0.6199574056,0.0000000000,0.0000000000,0.0000000000,0.0000000000,0.0000000000,0.0621738881,0.0000000000,0.0000000000,0.0000000000,0.0000000000,0.0000000000,0.0000000000,0.0000000000,0.0000000000,0.0000000000,0.0000000000,0.0000000000,-0.0000000000,-0.0000000000,-0.0000000000,-0.0000000000,-0.0000000000,-0.0000000000,0.0000000000,-1137.6420898438,155.5499267578,0.0000000000,0.0100145340,inf,0.0000376701,inf,0.0699787140,0.0699553490,0.0799791813,0.0699388981,0.0299975872,0.0699234009,0.0099847317,0.0099704266,0.0200195312,0.0000212193,0.0299766064,0.1800706387,262103
1777391570.0270824432,0.0338393599,0.0320024639,0.0990072414,3.0633033900,0.3199276940,0.0013895747,nan,3.9008798599,3.9046354294,nan,nan,nan,nan,-0.0063806167,-0.0001240767,0.0019094225,-0.3773133755,-0.0936290845,-1.9207446575,0.0737344399,-0.1013078541,-0.0427316763,-0.0396762547,1.5195649842,0.5015733363,0.0000000000,0.0000000000,0.0000000000,0.0000000000,0.0000000000,0.0621738881,0.0000000000,0.0000000000,0.0000000000,0.0000000000,0.0000000000,0.0000000000,0.0000000000,0.0000000000,0.0000000000,0.0000000000,0.0000000000,-0.0000000000,-0.0000000000,-0.0000000000,-0.0000000000,-0.0000000000,-0.0000000000,0.0000000000,-1137.6420898438,155.5499267578,0.0000000000,0.0200686455,inf,0.0100917816,inf,0.0800328255,0.0800094604,0.0000321865,0.0799930096,0.0400516987,0.0799775124,0.0200388432,0.0200245380,0.0300736427,0.0100753307,0.0400307178,0.0000131130,262103
1777391570.0370523930,0.0338393599,0.0320024639,0.0990072414,3.0633033900,0.3199276940,0.0013895747,nan,3.9008798599,3.9046354294,nan,nan,nan,nan,-0.0063806167,-0.0001240767,0.0019094225,-0.3331984580,-0.0855343565,-1.9376554489,0.0737344399,-0.1013078541,-0.0427316763,-0.0396762547,1.5195649842,0.5015733363,0.0000000000,0.0000000000,0.0000000000,0.0000000000,0.0000000000,0.0621738881,0.0000000000,0.0000000000,0.0000000000,0.0000000000,0.0000000000,0.0000000000,0.0000000000,0.0000000000,0.0000000000,0.0000000000,0.0000000000,-0.0000000000,-0.0000000000,-0.0000000000,-0.0000000000,-0.0000000000,-0.0000000000,0.0000000000,-1142.2742919922,134.1437683105,0.0000000000,0.0300385952,inf,0.0200617313,inf,0.0900027752,0.0000457764,0.0100021362,0.0000243187,0.0500216484,0.0000104904,0.0300087929,0.0299944878,0.0400435925,0.0200452805,0.0500006676,0.0099830627,262103
1777391570.0471580029,0.0338393599,0.0320024639,0.0990072414,3.0633033900,0.3199276940,0.0013895747,nan,3.9008798599,3.9046354294,nan,nan,nan,nan,-0.0088051297,-0.0005750789,0.0021802625,-0.3331984580,-0.0855343565,-1.9376554489,0.0737344399,-0.1013078541,-0.0427316763,-0.0396762547,1.5195649842,0.5015733363,0.0000000000,0.0000000000,0.0000000000,0.0000000000,0.0000000000,0.0621738881,0.0000000000,0.0000000000,0.0000000000,0.0000000000,0.0000000000,0.0000000000,0.0000000000,0.0000000000,0.0000000000,0.0000000000,0.0000000000,-0.0000000000,-0.0000000000,-0.0000000000,-0.0000000000,-0.0000000000,-0.0000000000,0.0000000000,-1142.2742919922,134.1437683105,0.0000000000,0.0401442051,inf,0.0301673412,inf,0.0001292229,0.0101513863,0.0201077461,0.0101299286,0.0601272583,0.0101161003,0.0000813007,0.0401000977,0.0000207424,0.0301508904,0.0000140667,0.0200886726,262103
1777391570.0571553707,0.0334097967,0.0320175253,0.0990404934,3.0659648474,0.3002255433,-0.0002401210,nan,3.9008798599,3.9046354294,nan,nan,nan,nan,-0.0088051297,-0.0005750789,0.0021802625,-0.3331984580,-0.0855343565,-1.9376554489,0.0737344399,-0.1013078541,-0.0427316763,-0.0396762547,1.5195649842,0.5015733363,0.0000000000,0.0000000000,0.0000000000,0.0000000000,0.0000000000,0.0621738881,0.0000000000,0.0000000000,0.0000000000,0.0000000000,0.0000000000,0.0000000000,0.0000000000,0.0000000000,0.0000000000,0.0000000000,0.0000000000,-0.0000000000,-0.0000000000,-0.0000000000,-0.0000000000,-0.0000000000,-0.0000000000,0.0000000000,-1142.2742919922,134.1437683105,0.0000000000,0.0000481606,inf,0.0401647091,inf,0.0101265907,0.0201487541,0.0301051140,0.0201272964,0.0701246262,0.0201134682,0.0100786686,0.0000228882,0.0100181103,0.0401482582,0.0100114346,0.0300860405,262103
1777391570.0672001839,0.0334097967,0.0320175253,0.0990404934,3.0659648474,0.3002255433,-0.0002401210,nan,3.9008798599,3.9044661522,nan,nan,nan,nan,-0.0088051297,-0.0005750789,0.0021802625,-0.3331984580,-0.0855343565,-1.9376554489,0.0737344399,-0.1013078541,-0.0427316763,-0.0396762547,1.5195649842,0.5015733363,0.0000000000,0.0000000000,0.0000000000,0.0000000000,0.0000000000,0.0621738881,0.0000000000,0.0000000000,0.0000000000,0.0000000000,0.0000000000,0.0000000000,0.0000000000,0.0000000000,0.0000000000,0.0000000000,0.0000000000,-0.0000000000,-0.0000000000,-0.0000000000,-0.0000000000,-0.0000000000,-0.0000000000,0.0000000000,-1142.2742919922,134.1437683105,0.0000000000,0.0100929737,inf,0.0000298023,inf,0.0201714039,0.0301935673,0.0401499271,0.0301721096,0.0801694393,0.0301582813,0.0201234818,0.0100677013,0.0200629234,0.0000154972,0.0200562477,0.0401308537,262103
1777391570.0770595074,0.0334097967,0.0320175253,0.0990404934,3.0659648474,0.3002255433,-0.0002401210,nan,3.9008798599,3.9044661522,nan,nan,nan,nan,-0.0088051297,-0.0005750789,0.0021802625,-0.3331984580,-0.0855343565,-1.9376554489,0.0737344399,-0.1013078541,-0.0427316763,-0.0396762547,1.5195649842,0.5015733363,0.0000000000,0.0000000000,0.0000000000,0.0000000000,0.0000000000,0.0621738881,0.0000000000,0.0000000000,0.0000000000,0.0000000000,0.0000000000,0.0000000000,0.0000000000,0.0000000000,0.0000000000,0.0000000000,0.0000000000,-0.0000000000,-0.0000000000,-0.0000000000,-0.0000000000,-0.0000000000,-0.0000000000,0.0000000000,-1142.2742919922,134.1437683105,0.0000000000,0.0199522972,inf,0.0098891258,inf,0.0300307274,0.0400528908,0.0500092506,0.0400314331,0.0900287628,0.0400176048,0.0299828053,0.0199270248,0.0299222469,0.0098748207,0.0299155712,0.0499901772,262103
1777391570.0870449543,0.0334097967,0.0320175253,0.0990404934,3.0659648474,0.3002255433,-0.0002401210,nan,3.9008798599,3.9044661522,nan,nan,nan,nan,-0.0088051297,-0.0005750789,0.0021802625,-0.3331984580,-0.0855343565,-1.9376554489,0.0737344399,-0.1013078541,-0.0427316763,-0.0396762547,1.5195649842,0.5015733363,0.0000000000,0.0000000000,0.0000000000,0.0000000000,0.0000000000,0.0614060909,0.0000000000,0.0000000000,0.0000000000,0.0000000000,0.0000000000,0.0000000000,0.0000000000,0.0000000000,0.0000000000,0.0000000000,0.0000000000,-0.0000000000,-0.0000000000,-0.0000000000,-0.0000000000,-0.0000000000,-0.0000000000,0.0000000000,-1142.2742919922,134.1437683105,0.0000000000,0.0299377441,inf,0.0198745728,inf,0.0400161743,0.0500383377,0.0599946976,0.0500168800,0.0000336170,0.0500030518,0.0399682522,0.0299124718,0.0399076939,0.0198602676,0.0000119209,0.0599756241,262103
1777391570.0971038342,0.0334097967,0.0320175253,0.0990404934,3.0659648474,0.3002255433,-0.0002401210,nan,3.9008798599,3.9044661522,nan,nan,nan,nan,-0.0088051297,-0.0005750789,0.0021802625,-0.3331984580,-0.0855343565,-1.9376554489,0.0737344399,-0.1013078541,-0.0427316763,-0.0396762547,1.5195649842,0.5015733363,0.0000000000,0.0000000000,0.0000000000,0.0000000000,0.0000000000,0.0614060909,0.0000000000,0.0000000000,0.0000000000,0.0000000000,0.0000000000,0.0000000000,0.0000000000,0.0000000000,0.0000000000,0.0000000000,0.0000000000,-0.0000000000,-0.0000000000,-0.0000000000,-0.0000000000,-0.0000000000,-0.0000000000,0.0000000000,-1142.2742919922,134.1437683105,0.0000000000,0.0399966240,inf,0.0299334526,inf,0.0500750542,0.0600972176,0.0700535774,0.0600757599,0.0100924969,0.0600619316,0.0500271320,0.0399713516,0.0000214577,0.0299191475,0.0100708008,0.0700345039,262103
1777391570.1071677208,0.0336353295,0.0320301615,0.0990321860,3.0719177921,0.2778648819,0.0014378505,nan,3.9008798599,3.9044661522,nan,nan,nan,nan,-0.0088051297,-0.0005750789,0.0021802625,-0.3331984580,-0.0855343565,-1.9376554489,0.0737344399,-0.1013078541,-0.0427316763,-0.0396762547,1.5195649842,0.5015733363,0.0000000000,0.0000000000,0.0000000000,0.0000000000,0.0000000000,0.0614060909,0.0000000000,0.0000000000,0.0000000000,0.0000000000,0.0000000000,0.0000000000,0.0000000000,0.0000000000,0.0000000000,0.0000000000,0.0000000000,-0.0000000000,-0.0000000000,-0.0000000000,-0.0000000000,-0.0000000000,-0.0000000000,0.0000000000,-1142.2742919922,134.1437683105,0.0000000000,0.0000574589,inf,0.0399973392,inf,0.0601389408,0.0701611042,0.0801174641,0.0701396465,0.0201563835,0.0701258183,0.0000281334,0.0000171661,0.0100853443,0.0399830341,0.0201346874,0.0800983906,262103
1777391570.1171467304,0.0336353295,0.0320301615,0.0990321860,3.0719177921,0.2778648819,0.0014378505,nan,3.9061584473,3.9043705463,nan,nan,nan,nan,-0.0088051297,-0.0005750789,0.0021802625,-0.3331984580,-0.0855343565,-1.9376554489,0.0737344399,-0.1013078541,-0.0427316763,-0.0396762547,1.5195649842,0.5015733363,0.0000000000,0.0000000000,0.0000000000,0.0000000000,0.0000000000,0.0614060909,0.0000000000,0.0000000000,0.0000000000,0.0000000000,0.0000000000,0.0000000000,0.0000000000,0.0000000000,0.0000000000,0.0000000000,0.0000000000,-0.0000000000,-0.0000000000,-0.0000000000,-0.0000000000,-0.0000000000,-0.0000000000,0.0000000000,-1142.2742919922,134.1437683105,0.0000000000,0.0100364685,inf,0.0000402927,inf,0.0701179504,0.0801401138,0.0900964737,0.0000252724,0.0301353931,0.0801048279,0.0100071430,0.0099961758,0.0200643539,0.0000166893,0.0301136971,0.0900774002,262103
1777391570.1271111965,0.0336353295,0.0320301615,0.0990321860,3.0719177921,0.2778648819,0.0014378505,nan,3.9061584473,3.9043705463,nan,nan,nan,nan,-0.0088051297,-0.0005750789,0.0021802625,-0.3331984580,-0.0855343565,-1.9376554489,-0.0924317613,0.0965202674,0.1768782139,-1.6610933054,1.9776041443,2.1953472823,0.0000000000,0.0000000000,0.0000000000,0.0000000000,0.0000000000,0.0614060909,0.0000000000,0.0000000000,0.0000000000,0.0000000000,0.0000000000,0.0000000000,0.0000000000,0.0000000000,0.0000000000,0.0000000000,0.0000000000,-0.0000000000,-0.0000000000,-0.0000000000,-0.0000000000,-0.0000000000,-0.0000000000,0.0000000000,-1142.2742919922,134.1437683105,0.0000000000,0.0200009346,inf,0.0100047588,inf,0.0800824165,0.0901045799,0.0000267029,0.0099897385,0.0400998592,0.0900692940,0.0199716091,0.0199606419,0.0300288200,0.0099811554,0.0400781631,0.1000418663,262103
1777391570.1371340752,0.0336353295,0.0320301615,0.0990321860,3.0719177921,0.2778648819,0.0014378505,nan,3.9061584473,3.9043705463,nan,nan,nan,nan,-0.0088051297,-0.0005750789,0.0021802625,-0.2971692681,-0.0734064579,-1.9552872181,-0.0924317613,0.0965202674,0.1768782139,-1.6610933054,1.9776041443,2.1953472823,0.0000000000,0.0000000000,0.0000000000,0.0000000000,0.0000000000,0.0614060909,0.0000000000,0.0000000000,0.0000000000,0.0000000000,0.0000000000,0.0000000000,0.0000000000,0.0000000000,0.0000000000,0.0000000000,0.0000000000,-0.0000000000,-0.0000000000,-0.0000000000,-0.0000000000,-0.0000000000,-0.0000000000,0.0000000000,-1145.9514160156,116.4076690674,0.0000000000,0.0300238132,inf,0.0200276375,inf,0.0901052952,0.0000402927,0.0100495815,0.0200126171,0.0501227379,0.0000252724,0.0299944878,0.0299835205,0.0400516987,0.0200040340,0.0000169277,0.1100647449,262103
1777391570.1470739841,0.0336353295,0.0320301615,0.0990321860,3.0719177921,0.2778648819,0.0014378505,nan,3.9061584473,3.9043705463,nan,nan,nan,nan,-0.0077851620,-0.0011240728,0.0013752918,-0.2971692681,-0.0734064579,-1.9552872181,-0.0924317613,0.0965202674,0.1768782139,-1.6610933054,1.9776041443,2.1953472823,0.0000000000,0.0000000000,0.0000000000,0.0000000000,0.0000000000,0.0614060909,0.0000000000,0.0000000000,0.0000000000,0.0000000000,0.0000000000,0.0000000000,0.0000000000,0.0000000000,0.0000000000,0.0000000000,0.0000000000,-0.0000000000,-0.0000000000,-0.0000000000,-0.0000000000,-0.0000000000,-0.0000000000,0.0000000000,-1145.9514160156,116.4076690674,0.0000000000,0.0399637222,inf,0.0299675465,inf,0.0000259876,0.0099802017,0.0199894905,0.0299525261,0.0600626469,0.0099651814,0.0399343967,0.0399234295,0.0000138283,0.0299439430,0.0099568367,0.1200046539,262103
1777391570.1571366787,0.0332667381,0.0320808366,0.0990797281,3.0773751439,0.2610216664,-0.0000537336,nan,3.9061584473,3.9043705463,nan,nan,nan,nan,-0.0077851620,-0.0011240728,0.0013752918,-0.2971692681,-0.0734064579,-1.9552872181,-0.0924317613,0.0965202674,0.1768782139,-1.6610933054,1.9776041443,2.1953472823,0.0000000000,0.0000000000,0.0000000000,0.0000000000,0.0000000000,0.0614060909,0.0000000000,0.0000000000,0.0000000000,0.0000000000,0.0000000000,0.0000000000,0.0000000000,0.0000000000,0.0000000000,0.0000000000,0.0000000000,-0.0000000000,-0.0000000000,-0.0000000000,-0.0000000000,-0.0000000000,-0.0000000000,0.0000000000,-1145.9514160156,116.4076690674,0.0000000000,0.0000510216,inf,0.0400302410,inf,0.0100886822,0.0200428963,0.0300521851,0.0400152206,0.0701253414,0.0200278759,0.0000245571,0.0000154972,0.0100765228,0.0400066376,0.0200195312,0.1300673485,262103
1777391570.1671245098,0.0332667381,0.0320808366,0.0990797281,3.0773751439,0.2610216664,-0.0000537336,nan,3.9061584473,3.9043984413,nan,nan,nan,nan,-0.0077851620,-0.0011240728,0.0013752918,-0.2971692681,-0.0734064579,-1.9552872181,-0.0924317613,0.0965202674,0.1768782139,-1.6610933054,1.9776041443,2.1953472823,0.0000000000,0.0000000000,0.0000000000,0.0000000000,0.0000000000,0.0614060909,0.0000000000,0.0000000000,0.0000000000,0.0000000000,0.0000000000,0.0000000000,0.0000000000,0.0000000000,0.0000000000,0.0000000000,0.0000000000,-0.0000000000,-0.0000000000,-0.0000000000,-0.0000000000,-0.0000000000,-0.0000000000,0.0000000000,-1145.9514160156,116.4076690674,0.0000000000,0.0100388527,inf,0.0000343323,inf,0.0200765133,0.0300307274,0.0400400162,0.0500030518,0.0801131725,0.0300157070,0.0100123882,0.0100033283,0.0200643539,0.0000178814,0.0300073624,0.1400551796,262103
1777391570.1770651340,0.0332667381,0.0320808366,0.0990797281,3.0773751439,0.2610216664,-0.0000537336,nan,3.9061584473,3.9043984413,nan,nan,nan,nan,-0.0077851620,-0.0011240728,0.0013752918,-0.2971692681,-0.0734064579,-1.9552872181,-0.0924317613,0.0965202674,0.1768782139,-1.6610933054,1.9776041443,2.1953472823,0.0000000000,0.0000000000,0.0000000000,0.0000000000,0.0000000000,0.0614060909,0.0000000000,0.0000000000,0.0000000000,0.0000000000,0.0000000000,0.0000000000,0.0000000000,0.0000000000,0.0000000000,0.0000000000,0.0000000000,-0.0000000000,-0.0000000000,-0.0000000000,-0.0000000000,-0.0000000000,-0.0000000000,0.0000000000,-1145.9514160156,116.4076690674,0.0000000000,0.0199794769,inf,0.0099749565,inf,0.0300171375,0.0399713516,0.0499806404,0.0599436760,0.0900537968,0.0399563313,0.0199530125,0.0199439526,0.0300049782,0.0099585056,0.0399479866,0.1499958038,262103
1777391570.1870386600,0.0332667381,0.0320808366,0.0990797281,3.0773751439,0.2610216664,-0.0000537336,nan,3.9061584473,3.9043984413,nan,nan,nan,nan,-0.0077851620,-0.0011240728,0.0013752918,-0.2971692681,-0.0734064579,-1.9552872181,-0.0924317613,0.0965202674,0.1768782139,-1.6610933054,1.9776041443,2.1953472823,0.0000000000,0.0000000000,0.0000000000,0.0000000000,0.0000000000,0.0614606254,0.0000000000,0.0000000000,0.0000000000,0.0000000000,0.0000000000,0.0000000000,0.0000000000,0.0000000000,0.0000000000,0.0000000000,0.0000000000,-0.0000000000,-0.0000000000,-0.0000000000,-0.0000000000,-0.0000000000,-0.0000000000,0.0000000000,-1145.9514160156,116.4076690674,0.0000000000,0.0299530029,inf,0.0199484825,inf,0.0399906635,0.0499448776,0.0599541664,0.0699172020,0.0000262260,0.0499298573,0.0299265385,0.0299174786,0.0399785042,0.0199320316,0.0000092983,0.1599693298,262103
1777391570.1970818043,0.0332667381,0.0320808366,0.0990797281,3.0773751439,0.2610216664,-0.0000537336,nan,3.9061584473,3.9043984413,nan,nan,nan,nan,-0.0077851620,-0.0011240728,0.0013752918,-0.2971692681,-0.0734064579,-1.9552872181,-0.0924317613,0.0965202674,0.1768782139,-1.6610933054,1.9776041443,2.1953472823,0.0000000000,0.0000000000,0.0000000000,0.0000000000,0.0000000000,0.0614606254,0.0000000000,0.0000000000,0.0000000000,0.0000000000,0.0000000000,0.0000000000,0.0000000000,0.0000000000,0.0000000000,0.0000000000,0.0000000000,-0.0000000000,-0.0000000000,-0.0000000000,-0.0000000000,-0.0000000000,-0.0000000000,0.0000000000,-1145.9514160156,116.4076690674,0.0000000000,0.0399961472,inf,0.0299916267,inf,0.0500338078,0.0599880219,0.0699973106,0.0799603462,0.0100693703,0.0599730015,0.0399696827,0.0399606228,0.0000131130,0.0299751759,0.0100524426,0.1700124741,262103
1777391570.2070825100,0.0337329321,0.0320263207,0.0990327746,3.0803640372,0.2415038875,0.0009355034,nan,3.9061584473,3.9043984413,nan,nan,nan,nan,-0.0077851620,-0.0011240728,0.0013752918,-0.2971692681,-0.0734064579,-1.9552872181,-0.0924317613,0.0965202674,0.1768782139,-1.6610933054,1.9776041443,2.1953472823,0.0000000000,0.0000000000,0.0000000000,0.0000000000,0.0000000000,0.0614606254,0.0000000000,0.0000000000,0.0000000000,0.0000000000,0.0000000000,0.0000000000,0.0000000000,0.0000000000,0.0000000000,0.0000000000,0.0000000000,-0.0000000000,-0.0000000000,-0.0000000000,-0.0000000000,-0.0000000000,-0.0000000000,0.0000000000,-1145.9514160156,116.4076690674,0.0000000000,0.0000565052,inf,0.0399923325,inf,0.0600345135,0.0699887276,0.0799980164,0.0899610519,0.0200700760,0.0699737072,0.0000281334,0.0000128746,0.0100138187,0.0399758816,0.0200531483,0.1800131798,262103
1777391570.2171020508,0.0337329321,0.0320263207,0.0990327746,3.0803640372,0.2415038875,0.0009355034,nan,3.9061584473,3.9045095444,nan,nan,nan,nan,-0.0077851620,-0.0011240728,0.0013752918,-0.2971692681,-0.0734064579,-1.9552872181,-0.0924317613,0.0965202674,0.1768782139,-1.6610933054,1.9776041443,2.1953472823,0.0000000000,0.0000000000,0.0000000000,0.0000000000,0.0000000000,0.0614606254,0.0000000000,0.0000000000,0.0000000000,0.0000000000,0.0000000000,0.0000000000,0.0000000000,0.0000000000,0.0000000000,0.0000000000,0.0000000000,-0.0000000000,-0.0000000000,-0.0000000000,-0.0000000000,-0.0000000000,-0.0000000000,0.0000000000,-1145.9514160156,116.4076690674,0.0000000000,0.0100760460,inf,0.0000526905,inf,0.0700540543,0.0800082684,0.0900175571,0.0000309944,0.0300896168,0.0799932480,0.0100476742,0.0100324154,0.0200333595,0.0000150204,0.0300726891,0.1900327206,262103
1777391570.2270770073,0.0337329321,0.0320263207,0.0990327746,3.0803640372,0.2415038875,0.0009355034,nan,3.9061584473,3.9045095444,nan,nan,nan,nan,-0.0077851620,-0.0011240728,0.0013752918,-0.2971692681,-0.0734064579,-1.9552872181,0.2128469497,0.0433250368,0.0227861051,3.0541808342,-0.5321951649,-1.5416245827,0.0000000000,0.0000000000,0.0000000000,0.0000000000,0.0000000000,0.0614606254,0.0000000000,0.0000000000,0.0000000000,0.0000000000,0.0000000000,0.0000000000,0.0000000000,0.0000000000,0.0000000000,0.0000000000,0.0000000000,-0.0000000000,-0.0000000000,-0.0000000000,-0.0000000000,-0.0000000000,-0.0000000000,0.0000000000,-1145.9514160156,116.4076690674,0.0000000000,0.0200510025,inf,0.0100276470,inf,0.0800290108,0.0899832249,0.0000381470,0.0100059509,0.0400645733,0.0899682045,0.0200226307,0.0200073719,0.0300083160,0.0099899769,0.0400476456,0.0000157356,262103
1777391570.2370610237,0.0337329321,0.0320263207,0.0990327746,3.0803640372,0.2415038875,0.0009355034,nan,3.9061584473,3.9045095444,nan,nan,nan,nan,-0.0077851620,-0.0011240728,0.0013752918,-0.2630605400,-0.0652389303,-1.9642465115,0.2128469497,0.0433250368,0.0227861051,3.0541808342,-0.5321951649,-1.5416245827,0.0000000000,0.0000000000,0.0000000000,0.0000000000,0.0000000000,0.0614606254,0.0000000000,0.0000000000,0.0000000000,0.0000000000,0.0000000000,0.0000000000,0.0000000000,0.0000000000,0.0000000000,0.0000000000,0.0000000000,-0.0000000000,-0.0000000000,-0.0000000000,-0.0000000000,-0.0000000000,-0.0000000000,0.0000000000,-1149.0744628906,100.9781951904,0.0000000000,0.0300350189,inf,0.0200116634,inf,0.0900130272,0.0000560284,0.0100221634,0.0199899673,0.0500485897,0.0000295639,0.0300066471,0.0299913883,0.0399923325,0.0199739933,0.0000131130,0.0099997520,262103
1777391570.2470426559,0.0337329321,0.0320263207,0.0990327746,3.0803640372,0.2415038875,0.0009355034,nan,3.9061584473,3.9045095444,nan,nan,nan,nan,-0.0059937304,-0.0003981970,0.0009285558,-0.2630605400,-0.0652389303,-1.9642465115,0.2128469497,0.0433250368,0.0227861051,3.0541808342,-0.5321951649,-1.5416245827,0.0000000000,0.0000000000,0.0000000000,0.0000000000,0.0000000000,0.0614606254,0.0000000000,0.0000000000,0.0000000000,0.0000000000,0.0000000000,0.0000000000,0.0000000000,0.0000000000,0.0000000000,0.0000000000,0.0000000000,-0.0000000000,-0.0000000000,-0.0000000000,-0.0000000000,-0.0000000000,-0.0000000000,0.0000000000,-1149.0744628906,100.9781951904,0.0000000000,0.0400166512,inf,0.0299932957,inf,0.0000414848,0.0100376606,0.0200037956,0.0299715996,0.0600302219,0.0100111961,0.0399882793,0.0399730206,0.0000138283,0.0299556255,0.0099947453,0.0199813843,262103
1777391570.2570724487,0.0334537886,0.0320440643,0.0990688577,3.0861196831,0.2247879751,0.0020957393,nan,3.9061584473,3.9045095444,nan,nan,nan,nan,-0.0059937304,-0.0003981970,0.0009285558,-0.2630605400,-0.0652389303,-1.9642465115,0.2128469497,0.0433250368,0.0227861051,3.0541808342,-0.5321951649,-1.5416245827,0.0000000000,0.0000000000,0.0000000000,0.0000000000,0.0000000000,0.0614606254,0.0000000000,0.0000000000,0.0000000000,0.0000000000,0.0000000000,0.0000000000,0.0000000000,0.0000000000,0.0000000000,0.0000000000,0.0000000000,-0.0000000000,-0.0000000000,-0.0000000000,-0.0000000000,-0.0000000000,-0.0000000000,0.0000000000,-1149.0744628906,100.9781951904,0.0000000000,0.0000569820,inf,0.0400230885,inf,0.0100712776,0.0200674534,0.0300335884,0.0400013924,0.0700600147,0.0200409889,0.0000259876,0.0000116825,0.0100436211,0.0399854183,0.0200245380,0.0300111771,262103
1777391570.2671372890,0.0334537886,0.0320440643,0.0990688577,3.0861196831,0.2247879751,0.0020957393,3.9059998989,3.9061584473,3.9045295715,nan,nan,nan,nan,-0.0059937304,-0.0003981970,0.0009285558,-0.2630605400,-0.0652389303,-1.9642465115,0.2128469497,0.0433250368,0.0227861051,3.0541808342,-0.5321951649,-1.5416245827,0.0000000000,0.0000000000,0.0000000000,0.0000000000,0.0000000000,0.0614606254,0.0000000000,0.0000000000,0.0000000000,0.0000000000,0.0000000000,0.0000000000,0.0000000000,0.0000000000,0.0000000000,0.0000000000,0.0000000000,-0.0000000000,-0.0000000000,-0.0000000000,-0.0000000000,-0.0000000000,-0.0000000000,0.0000000000,-1149.0744628906,100.9781951904,0.0000000000,0.0101218224,0.0000534058,0.0000262260,inf,0.0201361179,0.0301322937,0.0400984287,0.0500662327,0.0801248550,0.0301058292,0.0100908279,0.0100765228,0.0201084614,0.0000121593,0.0300893784,0.0400760174,262111
1777391570.2770555019,0.0334537886,0.0320440643,0.0990688577,3.0861196831,0.2247879751,0.0020957393,3.9059998989,3.9061584473,3.9045295715,nan,nan,nan,nan,-0.0059937304,-0.0003981970,0.0009285558,-0.2630605400,-0.0652389303,-1.9642465115,0.2128469497,0.0433250368,0.0227861051,3.0541808342,-0.5321951649,-1.5416245827,0.0000000000,0.0000000000,0.0000000000,0.0000000000,0.0000000000,0.0614606254,0.0000000000,0.0000000000,0.0000000000,0.0000000000,0.0000000000,0.0000000000,0.0000000000,0.0000000000,0.0000000000,0.0000000000,0.0000000000,-0.0000000000,-0.0000000000,-0.0000000000,-0.0000000000,-0.0000000000,-0.0000000000,0.0000000000,-1149.0744628906,100.9781951904,0.0000000000,0.0200400352,0.0099716187,0.0099444389,inf,0.0300543308,0.0400505066,0.0500166416,0.0599844456,0.0900430679,0.0400240421,0.0200090408,0.0199947357,0.0300266743,0.0099303722,0.0400075912,0.0499942303,262111
1777391570.2870810032,0.0334537886,0.0320440643,0.0990688577,3.0861196831,0.2247879751,0.0020957393,3.9059998989,3.9061584473,3.9045295715,nan,nan,nan,nan,-0.0059937304,-0.0003981970,0.0009285558,-0.2630605400,-0.0652389303,-1.9642465115,0.2128469497,0.0433250368,0.0227861051,3.0541808342,-0.5321951649,-1.5416245827,0.0000000000,0.0000000000,0.0000000000,0.0000000000,0.0000000000,0.0601252727,0.0000000000,0.0000000000,0.0000000000,0.0000000000,0.0000000000,0.0000000000,0.0000000000,0.0000000000,0.0000000000,0.0000000000,0.0000000000,-0.0000000000,-0.0000000000,-0.0000000000,-0.0000000000,-0.0000000000,-0.0000000000,0.0000000000,-1149.0744628906,100.9781951904,0.0000000000,0.0300655365,0.0199971199,0.0199699402,inf,0.0400798321,0.0500760078,0.0600421429,0.0700099468,0.0000209808,0.0500495434,0.0300345421,0.0300202370,0.0400521755,0.0199558735,0.0500330925,0.0600197315,262111
1777391570.2971563339,0.0334537886,0.0320440643,0.0990688577,3.0861196831,0.2247879751,0.0020957393,3.9059998989,3.9061584473,3.9045295715,nan,nan,nan,nan,-0.0059937304,-0.0003981970,0.0009285558,-0.2630605400,-0.0652389303,-1.9642465115,0.2128469497,0.0433250368,0.0227861051,3.0541808342,-0.5321951649,-1.5416245827,0.0000000000,0.0000000000,0.0000000000,0.0000000000,0.0000000000,0.0601252727,0.0000000000,0.0000000000,0.0000000000,0.0000000000,0.0000000000,0.0000000000,0.0000000000,0.0000000000,0.0000000000,0.0000000000,0.0000000000,-0.0000000000,-0.0000000000,-0.0000000000,-0.0000000000,-0.0000000000,-0.0000000000,0.0000000000,-1149.0744628906,100.9781951904,0.0000000000,0.0401408672,0.0300724506,0.0300452709,inf,0.0501551628,0.0601513386,0.0701174736,0.0000562668,0.0100963116,0.0601248741,0.0401098728,0.0400955677,0.0000343323,0.0300312042,0.0000162125,0.0700950623,262111
1777391570.3073418140,0.0339407995,0.0319992863,0.0990029946,3.0887067991,0.2107960218,-0.0000281847,3.9059998989,3.9061584473,3.9045295715,nan,nan,nan,nan,-0.0059937304,-0.0003981970,0.0009285558,-0.2630605400,-0.0652389303,-1.9642465115,0.2128469497,0.0433250368,0.0227861051,3.0541808342,-0.5321951649,-1.5416245827,0.0000000000,0.0000000000,0.0000000000,0.0000000000,0.0000000000,0.0601252727,0.0000000000,0.0000000000,0.0000000000,0.0000000000,0.0000000000,0.0000000000,0.0000000000,0.0000000000,0.0000000000,0.0000000000,0.0000000000,-0.0000000000,-0.0000000000,-0.0000000000,-0.0000000000,-0.0000000000,-0.0000000000,0.0000000000,-1149.0744628906,100.9781951904,0.0000000000,0.0000746250,0.0402579308,0.0402307510,inf,0.0603406429,0.0703368187,0.0803029537,0.0102417469,0.0202817917,0.0703103542,0.0000383854,0.0000247955,0.0102198124,0.0402166843,0.0102016926,0.0802805424,262111
1777391570.3172204494,0.0339407995,0.0319992863,0.0990029946,3.0887067991,0.2107960218,-0.0000281847,3.9059998989,3.9061584473,3.9044299126,nan,nan,nan,nan,-0.0059937304,-0.0003981970,0.0009285558,-0.2630605400,-0.0652389303,-1.9642465115,0.2128469497,0.0433250368,0.0227861051,3.0541808342,-0.5321951649,-1.5416245827,0.0000000000,0.0000000000,0.0000000000,0.0000000000,0.0000000000,0.0601252727,0.0000000000,0.0000000000,0.0000000000,0.0000000000,0.0000000000,0.0000000000,0.0000000000,0.0000000000,0.0000000000,0.0000000000,0.0000000000,-0.0000000000,-0.0000000000,-0.0000000000,-0.0000000000,-0.0000000000,-0.0000000000,0.0000000000,-1149.0744628906,100.9781951904,0.0000000000,0.0099532604,0.0501365662,0.0000329018,inf,0.0702192783,0.0802154541,0.0901815891,0.0201203823,0.0301604271,0.0801889896,0.0099170208,0.0099034309,0.0200984478,0.0000181198,0.0200803280,0.0901591778,262111
1777391570.3271794319,0.0339407995,0.0319992863,0.0990029946,3.0887067991,0.2107960218,-0.0000281847,3.9059998989,3.9061584473,3.9044299126,nan,nan,nan,nan,-0.0059937304,-0.0003981970,0.0009285558,-0.2630605400,-0.0652389303,-1.9642465115,0.2128469497,0.0433250368,0.0227861051,3.0541808342,-0.5321951649,-1.5416245827,0.0000000000,0.0000000000,0.0000000000,0.0000000000,0.0000000000,0.0601252727,0.0000000000,0.0000000000,0.0000000000,0.0000000000,0.0000000000,0.0000000000,0.0000000000,0.0000000000,0.0000000000,0.0000000000,0.0000000000,-0.0000000000,-0.0000000000,-0.0000000000,-0.0000000000,-0.0000000000,-0.0000000000,0.0000000000,-1149.0744628906,100.9781951904,0.0000000000,0.0199122429,0.0600955486,0.0099918842,inf,0.0801782608,0.0901744366,0.1001405716,0.0300793648,0.0401194096,0.0901479721,0.0198760033,0.0198624134,0.0300574303,0.0099771023,0.0300393105,0.1001181602,262111
1777391570.3371961117,0.0339407995,0.0319992863,0.0990029946,3.0887067991,0.2107960218,-0.0000281847,3.9059998989,3.9061584473,3.9044299126,nan,nan,nan,nan,-0.0059937304,-0.0003981970,0.0009285558,-0.2630605400,-0.0652389303,-1.9642465115,-0.0540486686,0.1115272120,0.0164209213,-2.4235368375,0.6193075969,-0.0577988405,0.0000000000,0.0000000000,0.0000000000,0.0000000000,0.0000000000,0.0601252727,0.0000000000,0.0000000000,0.0000000000,0.0000000000,0.0000000000,0.0000000000,0.0000000000,0.0000000000,0.0000000000,0.0000000000,0.0000000000,-0.0000000000,-0.0000000000,-0.0000000000,-0.0000000000,-0.0000000000,-0.0000000000,0.0000000000,-1151.7668457031,87.4120025635,0.0000000000,0.0299289227,0.0701122284,0.0200085640,inf,0.0901949406,0.1001911163,0.0000307560,0.0400960445,0.0501360893,0.0000171661,0.0298926830,0.0298790932,0.0400741100,0.0199937820,0.0400559902,0.1101348400,262111
1777391570.3470728397,0.0339407995,0.0319992863,0.0990029946,3.0887067991,0.2107960218,-0.0000281847,3.9059998989,3.9061584473,3.9044299126,nan,nan,nan,nan,-0.0041066478,0.0000901893,0.0010477211,-0.2350808829,-0.0592027716,-1.9706919193,-0.0540486686,0.1115272120,0.0164209213,-2.4235368375,0.6193075969,-0.0577988405,0.0000000000,0.0000000000,0.0000000000,0.0000000000,0.0000000000,0.0601252727,0.0000000000,0.0000000000,0.0000000000,0.0000000000,0.0000000000,0.0000000000,0.0000000000,0.0000000000,0.0000000000,0.0000000000,0.0000000000,-0.0000000000,-0.0000000000,-0.0000000000,-0.0000000000,-0.0000000000,-0.0000000000,0.0000000000,-1151.7668457031,87.4120025635,0.0000000000,0.0398056507,0.0799889565,0.0298852921,inf,0.0000243187,0.0000166893,0.0099074841,0.0499727726,0.0600128174,0.0098938942,0.0397694111,0.0397558212,0.0499508381,0.0298705101,0.0000107288,0.1200115681,262111
1777391570.3570935726,0.0339407995,0.0319992863,0.0990029946,3.0887067991,0.2107960218,-0.0000281847,3.9059998989,3.9061584473,3.9044299126,nan,nan,nan,nan,-0.0041066478,0.0000901893,0.0010477211,-0.2350808829,-0.0592027716,-1.9706919193,-0.0540486686,0.1115272120,0.0164209213,-2.4235368375,0.6193075969,-0.0577988405,0.0000000000,0.0000000000,0.0000000000,0.0000000000,0.0000000000,0.0601252727,0.0000000000,0.0000000000,0.0000000000,0.0000000000,0.0000000000,0.0000000000,0.0000000000,0.0000000000,0.0000000000,0.0000000000,0.0000000000,-0.0000000000,-0.0000000000,-0.0000000000,-0.0000000000,-0.0000000000,-0.0000000000,0.0000000000,-1151.7668457031,87.4120025635,0.0000000000,0.0498263836,0.0900096893,0.0399060249,inf,0.0100450516,0.0100374222,0.0199282169,0.0599935055,0.0700335503,0.0199146271,0.0000166893,0.0497765541,0.0599715710,0.0398912430,0.0100314617,0.1300323009,262111
1777391570.3671300411,0.0339221135,0.0319986567,0.0989989862,3.0916038020,0.1941103153,0.0006950114,3.9059998989,3.9061584473,3.9044299126,nan,nan,nan,nan,-0.0041066478,0.0000901893,0.0010477211,-0.2350808829,-0.0592027716,-1.9706919193,-0.0540486686,0.1115272120,0.0164209213,-2.4235368375,0.6193075969,-0.0577988405,0.0000000000,0.0000000000,0.0000000000,0.0000000000,0.0000000000,0.0601252727,0.0000000000,0.0000000000,0.0000000000,0.0000000000,0.0000000000,0.0000000000,0.0000000000,0.0000000000,0.0000000000,0.0000000000,0.0000000000,-0.0000000000,-0.0000000000,-0.0000000000,-0.0000000000,-0.0000000000,-0.0000000000,0.0000000000,-1151.7668457031,87.4120025635,0.0000000000,0.0000457764,0.1000461578,0.0499424934,inf,0.0200815201,0.0200738907,0.0299646854,0.0700299740,0.0800700188,0.0299510956,0.0100531578,0.0000188351,0.0700080395,0.0499277115,0.0200679302,0.1400687695,262111
1777391570.3772218227,0.0339221135,0.0319986567,0.0989989862,3.0916038020,0.1941103153,0.0006950114,3.9059998989,3.9061584473,3.9044299126,nan,nan,nan,nan,-0.0041066478,0.0000901893,0.0010477211,-0.2350808829,-0.0592027716,-1.9706919193,-0.0540486686,0.1115272120,0.0164209213,-2.4235368375,0.6193075969,-0.0577988405,0.0000000000,0.0000000000,0.0000000000,0.0000000000,0.0000000000,0.0601252727,0.0000000000,0.0000000000,0.0000000000,0.0000000000,0.0000000000,0.0000000000,0.0000000000,0.0000000000,0.0000000000,0.0000000000,0.0000000000,-0.0000000000,-0.0000000000,-0.0000000000,-0.0000000000,-0.0000000000,-0.0000000000,0.0000000000,-1151.7668457031,87.4120025635,0.0000000000,0.0101375580,0.1101379395,0.0600342751,inf,0.0301733017,0.0301656723,0.0400564671,0.0801217556,0.0901618004,0.0400428772,0.0201449394,0.0101106167,0.0800998211,0.0600194931,0.0301597118,0.1501605511,262111
1777391570.3870949745,0.0339221135,0.0319986567,0.0989989862,3.0916038020,0.1941103153,0.0006950114,3.9059998989,3.9061584473,3.9044299126,nan,nan,nan,nan,-0.0041066478,0.0000901893,0.0010477211,-0.2350808829,-0.0592027716,-1.9706919193,-0.0540486686,0.1115272120,0.0164209213,-2.4235368375,0.6193075969,-0.0577988405,0.0000000000,0.0000000000,0.0000000000,0.0000000000,0.0000000000,0.0601252727,0.0000000000,0.0000000000,0.0000000000,0.0000000000,0.0000000000,0.0000000000,0.0000000000,0.0000000000,0.0000000000,0.0000000000,0.0000000000,-0.0000000000,-0.0000000000,-0.0000000000,-0.0000000000,-0.0000000000,-0.0000000000,0.0000000000,-1151.7668457031,87.4120025635,0.0000000000,0.0200107098,0.1200110912,0.0699074268,inf,0.0400464535,0.0400388241,0.0499296188,0.0899949074,0.1000349522,0.0499160290,0.0300180912,0.0199837685,0.0899729729,0.0698926449,0.0400328636,0.1600337029,262111
1777391570.3971686363,0.0339221135,0.0319986567,0.0989989862,3.0916038020,0.1941103153,0.0006950114,3.9059998989,3.9061584473,3.9044299126,nan,nan,nan,nan,-0.0041066478,0.0000901893,0.0010477211,-0.2350808829,-0.0592027716,-1.9706919193,-0.0540486686,0.1115272120,0.0164209213,-2.4235368375,0.6193075969,-0.0577988405,0.0000000000,0.0000000000,0.0000000000,0.0000000000,0.0000000000,0.0621742532,0.0000000000,0.0000000000,0.0000000000,0.0000000000,0.0000000000,0.0000000000,0.0000000000,0.0000000000,0.0000000000,0.0000000000,0.0000000000,-0.0000000000,-0.0000000000,-0.0000000000,-0.0000000000,-0.0000000000,-0.0000000000,0.0000000000,-1151.7668457031,87.4120025635,0.0000000000,0.0300843716,0.1300847530,0.0799810886,inf,0.0501201153,0.0501124859,0.0600032806,0.0000455379,0.0000333786,0.0599896908,0.0400917530,0.0300574303,0.0000247955,0.0799663067,0.0000166893,0.1701073647,262111
1777391570.4070768356,0.0339221135,0.0319986567,0.0989989862,3.0916038020,0.1941103153,0.0006950114,3.9059998989,3.9061584473,3.9044299126,nan,nan,nan,nan,-0.0041066478,0.0000901893,0.0010477211,-0.2350808829,-0.0592027716,-1.9706919193,-0.0540486686,0.1115272120,0.0164209213,-2.4235368375,0.6193075969,-0.0577988405,0.0000000000,0.0000000000,0.0000000000,0.0000000000,0.0000000000,0.0621742532,0.0000000000,0.0000000000,0.0000000000,0.0000000000,0.0000000000,0.0000000000,0.0000000000,0.0000000000,0.0000000000,0.0000000000,0.0000000000,-0.0000000000,-0.0000000000,-0.0000000000,-0.0000000000,-0.0000000000,-0.0000000000,0.0000000000,-1151.7668457031,87.4120025635,0.0000000000,0.0399925709,0.1399929523,0.0898892879,inf,0.0600283146,0.0600206852,0.0699114799,0.0099537373,0.0099415779,0.0698978901,0.0000207424,0.0399656296,0.0099329948,0.0898745060,0.0099248886,0.1800155640,262111
1777391570.4171330929,0.0339734554,0.0320034996,0.0990000144,3.0944556626,0.1829926788,0.0012341384,3.9059998989,3.9008798599,3.9045679569,nan,nan,nan,nan,-0.0041066478,0.0000901893,0.0010477211,-0.2350808829,-0.0592027716,-1.9706919193,-0.0540486686,0.1115272120,0.0164209213,-2.4235368375,0.6193075969,-0.0577988405,0.0000000000,0.0000000000,0.0000000000,0.0000000000,0.0000000000,0.0621742532,0.0000000000,0.0000000000,0.0000000000,0.0000000000,0.0000000000,0.0000000000,0.0000000000,0.0000000000,0.0000000000,0.0000000000,0.0000000000,-0.0000000000,-0.0000000000,-0.0000000000,-0.0000000000,-0.0000000000,-0.0000000000,0.0000000000,-1151.7668457031,87.4120025635,0.0000000000,0.0000562668,0.1500492096,0.0000333786,inf,0.0700845718,0.0700769424,0.0799677372,0.0200099945,0.0199978352,0.0799541473,0.0100769997,0.0000236034,0.0199892521,0.0000157356,0.0199811459,0.1900718212,262111
1777391570.4270977974,0.0339734554,0.0320034996,0.0990000144,3.0944556626,0.1829926788,0.0012341384,3.9059998989,3.9008798599,3.9045679569,nan,nan,nan,nan,-0.0041066478,0.0000901893,0.0010477211,-0.2350808829,-0.0592027716,-1.9706919193,-0.0540486686,0.1115272120,0.0164209213,-2.4235368375,0.6193075969,-0.0577988405,0.0000000000,0.0000000000,0.0000000000,0.0000000000,0.0000000000,0.0621742532,0.0000000000,0.0000000000,0.0000000000,0.0000000000,0.0000000000,0.0000000000,0.0000000000,0.0000000000,0.0000000000,0.0000000000,0.0000000000,-0.0000000000,-0.0000000000,-0.0000000000,-0.0000000000,-0.0000000000,-0.0000000000,0.0000000000,-1151.7668457031,87.4120025635,0.0000000000,0.0100209713,0.1600139141,0.0099980831,inf,0.0800492764,0.0800416470,0.0899324417,0.0299746990,0.0299625397,0.0899188519,0.0200417042,0.0099883080,0.0299539566,0.0099804401,0.0299458504,0.2000365257,262111
1777391570.4371435642,0.0339734554,0.0320034996,0.0990000144,3.0944556626,0.1829926788,0.0012341384,3.9059998989,3.9008798599,3.9045679569,nan,nan,nan,nan,-0.0041066478,0.0000901893,0.0010477211,-0.2350808829,-0.0592027716,-1.9706919193,-0.0540486686,0.1115272120,0.0164209213,-2.4235368375,0.6193075969,-0.0577988405,0.0000000000,0.0000000000,0.0000000000,0.0000000000,0.0000000000,0.0621742532,0.0000000000,0.0000000000,0.0000000000,0.0000000000,0.0000000000,0.0000000000,0.0000000000,0.0000000000,0.0000000000,0.0000000000,0.0000000000,-0.0000000000,-0.0000000000,-0.0000000000,-0.0000000000,-0.0000000000,-0.0000000000,0.0000000000,-1151.7668457031,87.4120025635,0.0000000000,0.0200667381,0.1700596809,0.0200438499,inf,0.0900950432,0.0900874138,0.0999782085,0.0400204659,0.0400083065,0.0999646187,0.0300874710,0.0200340748,0.0399997234,0.0200262070,0.0399916172,0.2100822926,262111
1777391570.4471721649,0.0339734554,0.0320034996,0.0990000144,3.0944556626,0.1829926788,0.0012341384,3.9059998989,3.9008798599,3.9045679569,nan,nan,nan,nan,-0.0041066478,0.0000901893,0.0010477211,-0.2350808829,-0.0592027716,-1.9706919193,-0.1240892783,0.0488492101,-0.0195354298,-0.6368562737,-0.5699104971,-0.3269392981,0.0000000000,0.0000000000,0.0000000000,0.0000000000,0.0000000000,0.0621742532,0.0000000000,0.0000000000,0.0000000000,0.0000000000,0.0000000000,0.0000000000,0.0000000000,0.0000000000,0.0000000000,0.0000000000,0.0000000000,-0.0000000000,-0.0000000000,-0.0000000000,-0.0000000000,-0.0000000000,-0.0000000000,0.0000000000,-1151.7668457031,87.4120025635,0.0000000000,0.0300953388,0.1800882816,0.0300724506,inf,0.1001236439,0.1001160145,0.0000281334,0.0500490665,0.0500369072,0.1099932194,0.0401160717,0.0300626755,0.0500283241,0.0300548077,0.0500202179,0.0000157356,262111
1777391570.4571774006,0.0339734554,0.0320034996,0.0990000144,3.0944556626,0.1829926788,0.0012341384,3.9059998989,3.9008798599,3.9045679569,nan,nan,nan,nan,-0.0041066478,0.0000901893,0.0010477211,-0.2121902257,-0.0533526652,-1.9753782749,-0.1240892783,0.0488492101,-0.0195354298,-0.6368562737,-0.5699104971,-0.3269392981,0.0000000000,0.0000000000,0.0000000000,0.0000000000,0.0000000000,0.0621742532,0.0000000000,0.0000000000,0.0000000000,0.0000000000,0.0000000000,0.0000000000,0.0000000000,0.0000000000,0.0000000000,0.0000000000,0.0000000000,-0.0000000000,-0.0000000000,-0.0000000000,-0.0000000000,-0.0000000000,-0.0000000000,0.0000000000,-1153.8897705078,75.8904190063,0.0000000000,0.0401005745,0.1900935173,0.0400776863,inf,0.1101288795,0.0000371933,0.0100333691,0.0600543022,0.0600421429,0.0000247955,0.0501213074,0.0400679111,0.0600335598,0.0400600433,0.0000164509,0.0100209713,262111
1777391570.4671280384,0.0339734554,0.0320034996,0.0990000144,3.0944556626,0.1829926788,0.0012341384,3.9059998989,3.9008798599,3.9045679569,nan,nan,nan,nan,-0.0068057412,-0.0012312550,0.0012360589,-0.2121902257,-0.0533526652,-1.9753782749,-0.1240892783,0.0488492101,-0.0195354298,-0.6368562737,-0.5699104971,-0.3269392981,0.0000000000,0.0000000000,0.0000000000,0.0000000000,0.0000000000,0.0621742532,0.0000000000,0.0000000000,0.0000000000,0.0000000000,0.0000000000,0.0000000000,0.0000000000,0.0000000000,0.0000000000,0.0000000000,0.0000000000,-0.0000000000,-0.0000000000,-0.0000000000,-0.0000000000,-0.0000000000,-0.0000000000,0.0000000000,-1153.8897705078,75.8904190063,0.0000000000,0.0500512123,0.2000441551,0.0500283241,inf,0.0000374317,0.0099878311,0.0199840069,0.0700049400,0.0699927807,0.0099754333,0.0000250340,0.0500185490,0.0000164509,0.0500106812,0.0099670887,0.0199716091,262111
1777391570.4770913124,0.0339809321,0.0320033617,0.0990007147,3.0973022846,0.1691026768,0.0018019176,3.9059998989,3.9061584473,3.9045770168,nan,nan,nan,nan,-0.0068057412,-0.0012312550,0.0012360589,-0.2121902257,-0.0533526652,-1.9753782749,-0.1240892783,0.0488492101,-0.0195354298,-0.6368562737,-0.5699104971,-0.3269392981,0.0000000000,0.0000000000,0.0000000000,0.0000000000,0.0000000000,0.0621742532,0.0000000000,0.0000000000,0.0000000000,0.0000000000,0.0000000000,0.0000000000,0.0000000000,0.0000000000,0.0000000000,0.0000000000,0.0000000000,-0.0000000000,-0.0000000000,-0.0000000000,-0.0000000000,-0.0000000000,-0.0000000000,0.0000000000,-1153.8897705078,75.8904190063,0.0000000000,0.0000441074,0.2100074291,0.0000224113,inf,0.0100007057,0.0199511051,0.0299472809,0.0799682140,0.0799560547,0.0199387074,0.0099883080,0.0000133514,0.0099797249,0.0599739552,0.0199303627,0.0299348831,262111
1777391570.4870364666,0.0339809321,0.0320033617,0.0990007147,3.0973022846,0.1691026768,0.0018019176,3.9059998989,3.9061584473,3.9045770168,nan,nan,nan,nan,-0.0068057412,-0.0012312550,0.0012360589,-0.2121902257,-0.0533526652,-1.9753782749,-0.1240892783,0.0488492101,-0.0195354298,-0.6368562737,-0.5699104971,-0.3269392981,0.0000000000,0.0000000000,0.0000000000,0.0000000000,0.0000000000,0.0621742532,0.0000000000,0.0000000000,0.0000000000,0.0000000000,0.0000000000,0.0000000000,0.0000000000,0.0000000000,0.0000000000,0.0000000000,0.0000000000,-0.0000000000,-0.0000000000,-0.0000000000,-0.0000000000,-0.0000000000,-0.0000000000,0.0000000000,-1153.8897705078,75.8904190063,0.0000000000,0.0099892616,0.2199525833,0.0099675655,inf,0.0199458599,0.0298962593,0.0398924351,0.0000267029,0.0899012089,0.0298838615,0.0199334621,0.0099585056,0.0199248791,0.0000097752,0.0298755169,0.0398800373,262111
1777391570.4970469475,0.0339809321,0.0320033617,0.0990007147,3.0973022846,0.1691026768,0.0018019176,3.9059998989,3.9061584473,3.9045770168,nan,nan,nan,nan,-0.0068057412,-0.0012312550,0.0012360589,-0.2121902257,-0.0533526652,-1.9753782749,-0.1240892783,0.0488492101,-0.0195354298,-0.6368562737,-0.5699104971,-0.3269392981,0.0000000000,0.0000000000,0.0000000000,0.0000000000,0.0000000000,0.0630286410,0.0000000000,0.0000000000,0.0000000000,0.0000000000,0.0000000000,0.0000000000,0.0000000000,0.0000000000,0.0000000000,0.0000000000,0.0000000000,-0.0000000000,-0.0000000000,-0.0000000000,-0.0000000000,-0.0000000000,-0.0000000000,0.0000000000,-1153.8897705078,75.8904190063,0.0000000000,0.0199997425,0.2299630642,0.0199780464,inf,0.0299563408,0.0399067402,0.0499029160,0.0100371838,0.0000324249,0.0398943424,0.0299439430,0.0199689865,0.0000114441,0.0100202560,0.0398859978,0.0498905182,262111
1777391570.5070602894,0.0339748263,0.0320035070,0.0990017056,3.1001263707,0.1579950720,0.0022705588,3.9059998989,3.9061584473,3.9045770168,nan,nan,nan,nan,-0.0068057412,-0.0012312550,0.0012360589,-0.2121902257,-0.0533526652,-1.9753782749,-0.1240892783,0.0488492101,-0.0195354298,-0.6368562737,-0.5699104971,-0.3269392981,0.0000000000,0.0000000000,0.0000000000,0.0000000000,0.0000000000,0.0630286410,0.0000000000,0.0000000000,0.0000000000,0.0000000000,0.0000000000,0.0000000000,0.0000000000,0.0000000000,0.0000000000,0.0000000000,0.0000000000,-0.0000000000,-0.0000000000,-0.0000000000,-0.0000000000,-0.0000000000,-0.0000000000,0.0000000000,-1153.8897705078,75.8904190063,0.0000000000,0.0000545979,0.2399764061,0.0299913883,inf,0.0399696827,0.0499200821,0.0599162579,0.0200505257,0.0100457668,0.0499076843,0.0000212193,0.0000131130,0.0100247860,0.0200335979,0.0498993397,0.0599038601,262111
1777391570.5170464516,0.0339748263,0.0320035070,0.0990017056,3.1001263707,0.1579950720,0.0022705588,3.9059998989,3.9061584473,3.9046001434,nan,nan,nan,nan,-0.0068057412,-0.0012312550,0.0012360589,-0.2121902257,-0.0533526652,-1.9753782749,-0.1240892783,0.0488492101,-0.0195354298,-0.6368562737,-0.5699104971,-0.3269392981,0.0000000000,0.0000000000,0.0000000000,0.0000000000,0.0000000000,0.0630286410,0.0000000000,0.0000000000,0.0000000000,0.0000000000,0.0000000000,0.0000000000,0.0000000000,0.0000000000,0.0000000000,0.0000000000,0.0000000000,-0.0000000000,-0.0000000000,-0.0000000000,-0.0000000000,-0.0000000000,-0.0000000000,0.0000000000,-1153.8897705078,75.8904190063,0.0000000000,0.0100407600,0.2499625683,0.0000388622,inf,0.0499558449,0.0599062443,0.0699024200,0.0300366879,0.0200319290,0.0598938465,0.0100073814,0.0099992752,0.0200109482,0.0000157356,0.0598855019,0.0698900223,262111
1777391570.5270087719,0.0339748263,0.0320035070,0.0990017056,3.1001263707,0.1579950720,0.0022705588,3.9059998989,3.9061584473,3.9046001434,nan,nan,nan,nan,-0.0068057412,-0.0012312550,0.0012360589,-0.2121902257,-0.0533526652,-1.9753782749,0.1800469309,0.0380621850,-0.0134994593,3.8088234361,-0.1350903731,0.0755909533,0.0000000000,0.0000000000,0.0000000000,0.0000000000,0.0000000000,0.0630286410,0.0000000000,0.0000000000,0.0000000000,0.0000000000,0.0000000000,0.0000000000,0.0000000000,0.0000000000,0.0000000000,0.0000000000,0.0000000000,-0.0000000000,-0.0000000000,-0.0000000000,-0.0000000000,-0.0000000000,-0.0000000000,0.0000000000,-1153.8897705078,75.8904190063,0.0000000000,0.0200030804,0.2599248886,0.0100011826,inf,0.0599181652,0.0698685646,0.0000143051,0.0399990082,0.0299942493,0.0698561668,0.0199697018,0.0199615955,0.0299732685,0.0099780560,0.0698478222,0.0798523426,262111
1777391570.5370354652,0.0339748263,0.0320035070,0.0990017056,3.1001263707,0.1579950720,0.0022705588,3.9059998989,3.9061584473,3.9046001434,nan,nan,nan,nan,-0.0068057412,-0.0012312550,0.0012360589,-0.1884030402,-0.0479942597,-1.9812078476,0.1800469309,0.0380621850,-0.0134994593,3.8088234361,-0.1350903731,0.0755909533,0.0000000000,0.0000000000,0.0000000000,0.0000000000,0.0000000000,0.0630286410,0.0000000000,0.0000000000,0.0000000000,0.0000000000,0.0000000000,0.0000000000,0.0000000000,0.0000000000,0.0000000000,0.0000000000,0.0000000000,-0.0000000000,-0.0000000000,-0.0000000000,-0.0000000000,-0.0000000000,-0.0000000000,0.0000000000,-1155.6956787109,66.0350799561,0.0000000000,0.0300297737,0.2699515820,0.0200278759,inf,0.0699448586,0.0000443459,0.0100409985,0.0500257015,0.0400209427,0.0000326633,0.0299963951,0.0299882889,0.0399999619,0.0200047493,0.0000243187,0.0898790359,262111
1777391570.5469985008,0.0339748263,0.0320035070,0.0990017056,3.1001263707,0.1579950720,0.0022705588,3.9059998989,3.9061584473,3.9046001434,nan,nan,nan,nan,-0.0089898547,-0.0010242934,0.0018490544,-0.1884030402,-0.0479942597,-1.9812078476,0.1800469309,0.0380621850,-0.0134994593,3.8088234361,-0.1350903731,0.0755909533,0.0000000000,0.0000000000,0.0000000000,0.0000000000,0.0000000000,0.0630286410,0.0000000000,0.0000000000,0.0000000000,0.0000000000,0.0000000000,0.0000000000,0.0000000000,0.0000000000,0.0000000000,0.0000000000,0.0000000000,-0.0000000000,-0.0000000000,-0.0000000000,-0.0000000000,-0.0000000000,-0.0000000000,0.0000000000,-1155.6956787109,66.0350799561,0.0000000000,0.0399928093,0.2799146175,0.0299909115,inf,0.0000214577,0.0100073814,0.0200040340,0.0599887371,0.0499839783,0.0099956989,0.0399594307,0.0399513245,0.0000104904,0.0299677849,0.0099873543,0.0998420715,262111
1777391570.5571649075,0.0335406326,0.0320549458,0.0990045071,3.1027338721,0.1468376485,-0.0000829221,3.9059998989,3.9061584473,3.9046001434,nan,nan,nan,nan,-0.0089898547,-0.0010242934,0.0018490544,-0.1884030402,-0.0479942597,-1.9812078476,0.1800469309,0.0380621850,-0.0134994593,3.8088234361,-0.1350903731,0.0755909533,0.0000000000,0.0000000000,0.0000000000,0.0000000000,0.0000000000,0.0630286410,0.0000000000,0.0000000000,0.0000000000,0.0000000000,0.0000000000,0.0000000000,0.0000000000,0.0000000000,0.0000000000,0.0000000000,0.0000000000,-0.0000000000,-0.0000000000,-0.0000000000,-0.0000000000,-0.0000000000,-0.0000000000,0.0000000000,-1155.6956787109,66.0350799561,0.0000000000,0.0000615120,0.2900810242,0.0401573181,inf,0.0101878643,0.0201737881,0.0301704407,0.0701551437,0.0601503849,0.0201621056,0.0000276566,0.0000166893,0.0101768970,0.0401341915,0.0201537609,0.1100084782,262111
1777391570.5670912266,0.0335406326,0.0320549458,0.0990045071,3.1027338721,0.1468376485,-0.0000829221,3.9059998989,3.9008798599,3.9045865536,nan,nan,nan,nan,-0.0089898547,-0.0010242934,0.0018490544,-0.1884030402,-0.0479942597,-1.9812078476,0.1800469309,0.0380621850,-0.0134994593,3.8088234361,-0.1350903731,0.0755909533,0.0000000000,0.0000000000,0.0000000000,0.0000000000,0.0000000000,0.0630286410,0.0000000000,0.0000000000,0.0000000000,0.0000000000,0.0000000000,0.0000000000,0.0000000000,0.0000000000,0.0000000000,0.0000000000,0.0000000000,-0.0000000000,-0.0000000000,-0.0000000000,-0.0000000000,-0.0000000000,-0.0000000000,0.0000000000,-1155.6956787109,66.0350799561,0.0000000000,0.0099878311,0.3000073433,0.0000355244,inf,0.0201141834,0.0301001072,0.0400967598,0.0000219345,0.0700767040,0.0300884247,0.0099539757,0.0099430084,0.0201032162,0.0000143051,0.0300800800,0.1199347973,262111
1777391570.5770716667,0.0335406326,0.0320549458,0.0990045071,3.1027338721,0.1468376485,-0.0000829221,3.9059998989,3.9008798599,3.9045865536,nan,nan,nan,nan,-0.0089898547,-0.0010242934,0.0018490544,-0.1884030402,-0.0479942597,-1.9812078476,0.1800469309,0.0380621850,-0.0134994593,3.8088234361,-0.1350903731,0.0755909533,0.0000000000,0.0000000000,0.0000000000,0.0000000000,0.0000000000,0.0630286410,0.0000000000,0.0000000000,0.0000000000,0.0000000000,0.0000000000,0.0000000000,0.0000000000,0.0000000000,0.0000000000,0.0000000000,0.0000000000,-0.0000000000,-0.0000000000,-0.0000000000,-0.0000000000,-0.0000000000,-0.0000000000,0.0000000000,-1155.6956787109,66.0350799561,0.0000000000,0.0199682713,0.3099877834,0.0100159645,inf,0.0300946236,0.0400805473,0.0500771999,0.0100023746,0.0800571442,0.0400688648,0.0199344158,0.0199234486,0.0300836563,0.0099947453,0.0400605202,0.1299152374,262111
1777391570.5871648788,0.0335406326,0.0320549458,0.0990045071,3.1027338721,0.1468376485,-0.0000829221,3.9059998989,3.9008798599,3.9045865536,nan,nan,nan,nan,-0.0089898547,-0.0010242934,0.0018490544,-0.1884030402,-0.0479942597,-1.9812078476,0.1800469309,0.0380621850,-0.0134994593,3.8088234361,-0.1350903731,0.0755909533,0.0000000000,0.0000000000,0.0000000000,0.0000000000,0.0000000000,0.0611181371,0.0000000000,0.0000000000,0.0000000000,0.0000000000,0.0000000000,0.0000000000,0.0000000000,0.0000000000,0.0000000000,0.0000000000,0.0000000000,-0.0000000000,-0.0000000000,-0.0000000000,-0.0000000000,-0.0000000000,-0.0000000000,0.0000000000,-1155.6956787109,66.0350799561,0.0000000000,0.0300614834,0.3200809956,0.0201091766,inf,0.0401878357,0.0501737595,0.0601704121,0.0200955868,0.0000321865,0.0501620770,0.0300276279,0.0300166607,0.0401768684,0.0200879574,0.0000166893,0.1400084496,262111
1777391570.5971360207,0.0335406326,0.0320549458,0.0990045071,3.1027338721,0.1468376485,-0.0000829221,3.9059998989,3.9008798599,3.9045865536,nan,nan,nan,nan,-0.0089898547,-0.0010242934,0.0018490544,-0.1884030402,-0.0479942597,-1.9812078476,0.1800469309,0.0380621850,-0.0134994593,3.8088234361,-0.1350903731,0.0755909533,0.0000000000,0.0000000000,0.0000000000,0.0000000000,0.0000000000,0.0611181371,0.0000000000,0.0000000000,0.0000000000,0.0000000000,0.0000000000,0.0000000000,0.0000000000,0.0000000000,0.0000000000,0.0000000000,0.0000000000,-0.0000000000,-0.0000000000,-0.0000000000,-0.0000000000,-0.0000000000,-0.0000000000,0.0000000000,-1155.6956787109,66.0350799561,0.0000000000,0.0400326252,0.3300521374,0.0300803185,inf,0.0501589775,0.0601449013,0.0701415539,0.0300667286,0.0100033283,0.0601332188,0.0399987698,0.0399878025,0.0000219345,0.0300590992,0.0099878311,0.1499795914,262111
1777391570.6071152687,0.0335406326,0.0320549458,0.0990045071,3.1027338721,0.1468376485,-0.0000829221,3.9059998989,3.9008798599,3.9045865536,nan,nan,nan,nan,-0.0089898547,-0.0010242934,0.0018490544,-0.1884030402,-0.0479942597,-1.9812078476,0.1800469309,0.0380621850,-0.0134994593,3.8088234361,-0.1350903731,0.0755909533,0.0000000000,0.0000000000,0.0000000000,0.0000000000,0.0000000000,0.0611181371,0.0000000000,0.0000000000,0.0000000000,0.0000000000,0.0000000000,0.0000000000,0.0000000000,0.0000000000,0.0000000000,0.0000000000,0.0000000000,-0.0000000000,-0.0000000000,-0.0000000000,-0.0000000000,-0.0000000000,-0.0000000000,0.0000000000,-1155.6956787109,66.0350799561,0.0000000000,0.0500118732,0.3400313854,0.0400595665,inf,0.0601382256,0.0701241493,0.0801208019,0.0400459766,0.0199825764,0.0701124668,0.0000312328,0.0000169277,0.0100011826,0.0400383472,0.0199670792,0.1599588394,262111
1777391570.6171288490,0.0330271609,0.0321269669,0.0990134999,3.1027571015,0.1385154119,0.0000804064,3.9059998989,3.9061584473,3.9044833183,nan,nan,nan,nan,-0.0089898547,-0.0010242934,0.0018490544,-0.1884030402,-0.0479942597,-1.9812078476,0.1800469309,0.0380621850,-0.0134994593,3.8088234361,-0.1350903731,0.0755909533,0.0000000000,0.0000000000,0.0000000000,0.0000000000,0.0000000000,0.0611181371,0.0000000000,0.0000000000,0.0000000000,0.0000000000,0.0000000000,0.0000000000,0.0000000000,0.0000000000,0.0000000000,0.0000000000,0.0000000000,-0.0000000000,-0.0000000000,-0.0000000000,-0.0000000000,-0.0000000000,-0.0000000000,0.0000000000,-1155.6956787109,66.0350799561,0.0000000000,0.0000555515,0.3500449657,0.0000281334,inf,0.0701518059,0.0801377296,0.0901343822,0.0500595570,0.0299961567,0.0801260471,0.0100448132,0.0100305080,0.0200147629,0.0000169277,0.0299806595,0.1699724197,262111
1777391570.6271159649,0.0330271609,0.0321269669,0.0990134999,3.1027571015,0.1385154119,0.0000804064,3.9059998989,3.9061584473,3.9044833183,nan,nan,nan,nan,-0.0089898547,-0.0010242934,0.0018490544,-0.1884030402,-0.0479942597,-1.9812078476,-0.0813066885,0.1131607965,0.0452195965,-2.6111356672,0.7502963352,0.5866512241,0.0000000000,0.0000000000,0.0000000000,0.0000000000,0.0000000000,0.0611181371,0.0000000000,0.0000000000,0.0000000000,0.0000000000,0.0000000000,0.0000000000,0.0000000000,0.0000000000,0.0000000000,0.0000000000,0.0000000000,-0.0000000000,-0.0000000000,-0.0000000000,-0.0000000000,-0.0000000000,-0.0000000000,0.0000000000,-1155.6956787109,66.0350799561,0.0000000000,0.0100426674,0.3600320816,0.0100152493,inf,0.0801389217,0.0901248455,0.0000295639,0.0600466728,0.0399832726,0.0901131630,0.0200319290,0.0200176239,0.0300018787,0.0100040436,0.0399677753,0.0000152588,262111
1777391570.6371657848,0.0330271609,0.0321269669,0.0990134999,3.1027571015,0.1385154119,0.0000804064,3.9059998989,3.9061584473,3.9044833183,nan,nan,nan,nan,-0.0089898547,-0.0010242934,0.0018490544,-0.1708418429,-0.0471097305,-1.9824924469,-0.0813066885,0.1131607965,0.0452195965,-2.6111356672,0.7502963352,0.5866512241,0.0000000000,0.0000000000,0.0000000000,0.0000000000,0.0000000000,0.0611181371,0.0000000000,0.0000000000,0.0000000000,0.0000000000,0.0000000000,0.0000000000,0.0000000000,0.0000000000,0.0000000000,0.0000000000,0.0000000000,-0.0000000000,-0.0000000000,-0.0000000000,-0.0000000000,-0.0000000000,-0.0000000000,0.0000000000,-1157.1525878906,57.4178733826,0.0000000000,0.0200924873,0.3700819016,0.0200650692,inf,0.0901887417,0.0000398159,0.0100793839,0.0700964928,0.0500330925,0.0000247955,0.0300817490,0.0300674438,0.0400516987,0.0200538635,0.0000166893,0.0100650787,262111
1777391570.6471152306,0.0330271609,0.0321269669,0.0990134999,3.1027571015,0.1385154119,0.0000804064,3.9059998989,3.9061584473,3.9044833183,nan,nan,nan,nan,-0.0116761755,-0.0012944264,0.0025116843,-0.1708418429,-0.0471097305,-1.9824924469,-0.0813066885,0.1131607965,0.0452195965,-2.6111356672,0.7502963352,0.5866512241,0.0000000000,0.0000000000,0.0000000000,0.0000000000,0.0000000000,0.0611181371,0.0000000000,0.0000000000,0.0000000000,0.0000000000,0.0000000000,0.0000000000,0.0000000000,0.0000000000,0.0000000000,0.0000000000,0.0000000000,-0.0000000000,-0.0000000000,-0.0000000000,-0.0000000000,-0.0000000000,-0.0000000000,0.0000000000,-1157.1525878906,57.4178733826,0.0000000000,0.0300419331,0.3800313473,0.0300145149,inf,0.0000278950,0.0099892616,0.0200288296,0.0800459385,0.0599825382,0.0099742413,0.0400311947,0.0400168896,0.0000147820,0.0300033092,0.0099661350,0.0200145245,262111
1777391570.6571280956,0.0325184949,0.0320777968,0.0989900306,3.1055698387,0.1274222817,0.0004752041,3.9059998989,3.9061584473,3.9044833183,nan,nan,nan,nan,-0.0116761755,-0.0012944264,0.0025116843,-0.1708418429,-0.0471097305,-1.9824924469,-0.0813066885,0.1131607965,0.0452195965,-2.6111356672,0.7502963352,0.5866512241,0.0000000000,0.0000000000,0.0000000000,0.0000000000,0.0000000000,0.0611181371,0.0000000000,0.0000000000,0.0000000000,0.0000000000,0.0000000000,0.0000000000,0.0000000000,0.0000000000,0.0000000000,0.0000000000,0.0000000000,-0.0000000000,-0.0000000000,-0.0000000000,-0.0000000000,-0.0000000000,-0.0000000000,0.0000000000,-1157.1525878906,57.4178733826,0.0000000000,0.0000643730,0.3900442123,0.0400273800,inf,0.0100407600,0.0200021267,0.0300416946,0.0000357628,0.0699954033,0.0199871063,0.0000247955,0.0000171661,0.0100276470,0.0400161743,0.0199790001,0.0300273895,262111
1777391570.6671588421,0.0325184949,0.0320777968,0.0989900306,3.1055698387,0.1274222817,0.0004752041,3.9059998989,3.9061584473,3.9045300484,nan,nan,nan,nan,-0.0116761755,-0.0012944264,0.0025116843,-0.1708418429,-0.0471097305,-1.9824924469,-0.0813066885,0.1131607965,0.0452195965,-2.6111356672,0.7502963352,0.5866512241,0.0000000000,0.0000000000,0.0000000000,0.0000000000,0.0000000000,0.0611181371,0.0000000000,0.0000000000,0.0000000000,0.0000000000,0.0000000000,0.0000000000,0.0000000000,0.0000000000,0.0000000000,0.0000000000,0.0000000000,-0.0000000000,-0.0000000000,-0.0000000000,-0.0000000000,-0.0000000000,-0.0000000000,0.0000000000,-1157.1525878906,57.4178733826,0.0000000000,0.0100951195,0.4000749588,0.0000317097,inf,0.0200715065,0.0300328732,0.0400724411,0.0100665092,0.0800261497,0.0300178528,0.0100555420,0.0100479126,0.0200583935,0.0000164509,0.0300097466,0.0400581360,262111
1777391570.6770505905,0.0325184949,0.0320777968,0.0989900306,3.1055698387,0.1274222817,0.0004752041,3.9059998989,3.9061584473,3.9045300484,nan,nan,nan,nan,-0.0116761755,-0.0012944264,0.0025116843,-0.1708418429,-0.0471097305,-1.9824924469,-0.0813066885,0.1131607965,0.0452195965,-2.6111356672,0.7502963352,0.5866512241,0.0000000000,0.0000000000,0.0000000000,0.0000000000,0.0000000000,0.0611181371,0.0000000000,0.0000000000,0.0000000000,0.0000000000,0.0000000000,0.0000000000,0.0000000000,0.0000000000,0.0000000000,0.0000000000,0.0000000000,-0.0000000000,-0.0000000000,-0.0000000000,-0.0000000000,-0.0000000000,-0.0000000000,0.0000000000,-1157.1525878906,57.4178733826,0.0000000000,0.0199868679,0.4099667072,0.0099234581,inf,0.0299632549,0.0399246216,0.0499641895,0.0199582577,0.0899178982,0.0399096012,0.0199472904,0.0199396610,0.0299501419,0.0099081993,0.0399014950,0.0499498844,262111
1777391570.6870143414,0.0325184949,0.0320777968,0.0989900306,3.1055698387,0.1274222817,0.0004752041,3.9059998989,3.9061584473,3.9045300484,nan,nan,nan,nan,-0.0116761755,-0.0012944264,0.0025116843,-0.1708418429,-0.0471097305,-1.9824924469,-0.0813066885,0.1131607965,0.0452195965,-2.6111356672,0.7502963352,0.5866512241,0.0000000000,0.0000000000,0.0000000000,0.0000000000,0.0000000000,0.0584626123,0.0000000000,0.0000000000,0.0000000000,0.0000000000,0.0000000000,0.0000000000,0.0000000000,0.0000000000,0.0000000000,0.0000000000,0.0000000000,-0.0000000000,-0.0000000000,-0.0000000000,-0.0000000000,-0.0000000000,-0.0000000000,0.0000000000,-1157.1525878906,57.4178733826,0.0000000000,0.0299506187,0.4199304581,0.0198872089,inf,0.0399270058,0.0498883724,0.0599279404,0.0299220085,0.0000169277,0.0498733521,0.0299110413,0.0299034119,0.0399138927,0.0198719501,0.0000081062,0.0599136353,262111
1777391570.6970748901,0.0325184949,0.0320777968,0.0989900306,3.1055698387,0.1274222817,0.0004752041,3.9059998989,3.9061584473,3.9045300484,nan,nan,nan,nan,-0.0116761755,-0.0012944264,0.0025116843,-0.1708418429,-0.0471097305,-1.9824924469,-0.0813066885,0.1131607965,0.0452195965,-2.6111356672,0.7502963352,0.5866512241,0.0000000000,0.0000000000,0.0000000000,0.0000000000,0.0000000000,0.0584626123,0.0000000000,0.0000000000,0.0000000000,0.0000000000,0.0000000000,0.0000000000,0.0000000000,0.0000000000,0.0000000000,0.0000000000,0.0000000000,-0.0000000000,-0.0000000000,-0.0000000000,-0.0000000000,-0.0000000000,-0.0000000000,0.0000000000,-1157.1525878906,57.4178733826,0.0000000000,0.0400111675,0.4299910069,0.0299477577,inf,0.0499875546,0.0599489212,0.0699884892,0.0399825573,0.0100774765,0.0599339008,0.0399715900,0.0399639606,0.0000176430,0.0299324989,0.0100686550,0.0699741840,262111
1777391570.7071301937,0.0318511501,0.0321439505,0.0989554226,3.1083688524,0.1191042235,0.0007917668,3.9059998989,3.9061584473,3.9045300484,nan,nan,nan,nan,-0.0116761755,-0.0012944264,0.0025116843,-0.1708418429,-0.0471097305,-1.9824924469,-0.0813066885,0.1131607965,0.0452195965,-2.6111356672,0.7502963352,0.5866512241,0.0000000000,0.0000000000,0.0000000000,0.0000000000,0.0000000000,0.0584626123,0.0000000000,0.0000000000,0.0000000000,0.0000000000,0.0000000000,0.0000000000,0.0000000000,0.0000000000,0.0000000000,0.0000000000,0.0000000000,-0.0000000000,-0.0000000000,-0.0000000000,-0.0000000000,-0.0000000000,-0.0000000000,0.0000000000,-1157.1525878906,57.4178733826,0.0000000000,0.0000529289,0.4400463104,0.0400030613,inf,0.0600428581,0.0700042248,0.0800437927,0.0500378609,0.0201327801,0.0699892044,0.0000255108,0.0000152588,0.0100729465,0.0399878025,0.0201239586,0.0800294876,262111
1777391570.7170920372,0.0318511501,0.0321439505,0.0989554226,3.1083688524,0.1191042235,0.0007917668,3.9059998989,3.9061584473,3.9045066833,nan,nan,nan,nan,-0.0116761755,-0.0012944264,0.0025116843,-0.1708418429,-0.0471097305,-1.9824924469,-0.0813066885,0.1131607965,0.0452195965,-2.6111356672,0.7502963352,0.5866512241,0.0000000000,0.0000000000,0.0000000000,0.0000000000,0.0000000000,0.0584626123,0.0000000000,0.0000000000,0.0000000000,0.0000000000,0.0000000000,0.0000000000,0.0000000000,0.0000000000,0.0000000000,0.0000000000,0.0000000000,-0.0000000000,-0.0000000000,-0.0000000000,-0.0000000000,-0.0000000000,-0.0000000000,0.0000000000,-1157.1525878906,57.4178733826,0.0000000000,0.0100147724,0.4500081539,0.0000283718,inf,0.0700047016,0.0799660683,0.0900056362,0.0599997044,0.0300946236,0.0799510479,0.0099873543,0.0099771023,0.0200347900,0.0000145435,0.0300858021,0.0899913311,262111
1777391570.7271919250,0.0318511501,0.0321439505,0.0989554226,3.1083688524,0.1191042235,0.0007917668,3.9059998989,3.9061584473,3.9045066833,nan,nan,nan,nan,-0.0116761755,-0.0012944264,0.0025116843,-0.1708418429,-0.0471097305,-1.9824924469,-0.0987172648,-0.4597532153,0.1957811117,-0.1739661527,-5.7245460726,1.5044078396,0.0000000000,0.0000000000,0.0000000000,0.0000000000,0.0000000000,0.0584626123,0.0000000000,0.0000000000,0.0000000000,0.0000000000,0.0000000000,0.0000000000,0.0000000000,0.0000000000,0.0000000000,0.0000000000,0.0000000000,-0.0000000000,-0.0000000000,-0.0000000000,-0.0000000000,-0.0000000000,-0.0000000000,0.0000000000,-1157.1525878906,57.4178733826,0.0000000000,0.0201146603,0.4601080418,0.0101282597,inf,0.0801045895,0.0900659561,0.0000252724,0.0700995922,0.0401945114,0.0900509357,0.0200872421,0.0200769901,0.0301346779,0.0101144314,0.0401856899,0.1000912189,262111
1777391570.7371261120,0.0318511501,0.0321439505,0.0989554226,3.1083688524,0.1191042235,0.0007917668,3.9059998989,3.9061584473,3.9045066833,nan,nan,nan,nan,-0.0116761755,-0.0012944264,0.0025116843,-0.1526841670,-0.0421724431,-1.9851684570,-0.0987172648,-0.4597532153,0.1957811117,-0.1739661527,-5.7245460726,1.5044078396,0.0000000000,0.0000000000,0.0000000000,0.0000000000,0.0000000000,0.0584626123,0.0000000000,0.0000000000,0.0000000000,0.0000000000,0.0000000000,0.0000000000,0.0000000000,0.0000000000,0.0000000000,0.0000000000,0.0000000000,-0.0000000000,-0.0000000000,-0.0000000000,-0.0000000000,-0.0000000000,-0.0000000000,0.0000000000,-1158.3240966797,50.0320434570,0.0000000000,0.0300488472,0.4700422287,0.0200624466,inf,0.0900387764,0.0000345707,0.0099594593,0.0800337791,0.0501286983,0.0000183582,0.0300214291,0.0300111771,0.0400688648,0.0200486183,0.0501198769,0.1100254059,262111
1777391570.7471575737,0.0318511501,0.0321439505,0.0989554226,3.1083688524,0.1191042235,0.0007917668,3.9059998989,3.9061584473,3.9045066833,nan,nan,nan,nan,-0.0152075235,-0.0018581462,0.0038696458,-0.1526841670,-0.0421724431,-1.9851684570,-0.0987172648,-0.4597532153,0.1957811117,-0.1739661527,-5.7245460726,1.5044078396,0.0000000000,0.0000000000,0.0000000000,0.0000000000,0.0000000000,0.0584626123,0.0000000000,0.0000000000,0.0000000000,0.0000000000,0.0000000000,0.0000000000,0.0000000000,0.0000000000,0.0000000000,0.0000000000,0.0000000000,-0.0000000000,-0.0000000000,-0.0000000000,-0.0000000000,-0.0000000000,-0.0000000000,0.0000000000,-1158.3240966797,50.0320434570,0.0000000000,0.0400803089,0.4800736904,0.0300939083,inf,0.0000519753,0.0100660324,0.0199909210,0.0000360012,0.0601601601,0.0100498199,0.0400528908,0.0400426388,0.0000269413,0.0300800800,0.0000176430,0.1200568676,262111
1777391570.7571694851,0.0310986862,0.0322270133,0.0988928229,3.1083811946,0.1107890073,0.0009303896,3.9059998989,3.9061584473,3.9045066833,nan,nan,nan,nan,-0.0152075235,-0.0018581462,0.0038696458,-0.1526841670,-0.0421724431,-1.9851684570,-0.0987172648,-0.4597532153,0.1957811117,-0.1739661527,-5.7245460726,1.5044078396,0.0000000000,0.0000000000,0.0000000000,0.0000000000,0.0000000000,0.0584626123,0.0000000000,0.0000000000,0.0000000000,0.0000000000,0.0000000000,0.0000000000,0.0000000000,0.0000000000,0.0000000000,0.0000000000,0.0000000000,-0.0000000000,-0.0000000000,-0.0000000000,-0.0000000000,-0.0000000000,-0.0000000000,0.0000000000,-1158.3240966797,50.0320434570,0.0000000000,0.0000572205,0.4900856018,0.0401058197,inf,0.0100638866,0.0200779438,0.0300028324,0.0100479126,0.0701720715,0.0200617313,0.0000278950,0.0000171661,0.0100388527,0.0400919914,0.0100295544,0.1300687790,262111
1777391570.7671053410,0.0310986862,0.0322270133,0.0988928229,3.1083811946,0.1107890073,0.0009303896,3.9059998989,3.9061584473,3.9045522213,nan,nan,nan,nan,-0.0152075235,-0.0018581462,0.0038696458,-0.1526841670,-0.0421724431,-1.9851684570,-0.0987172648,-0.4597532153,0.1957811117,-0.1739661527,-5.7245460726,1.5044078396,0.0000000000,0.0000000000,0.0000000000,0.0000000000,0.0000000000,0.0584626123,0.0000000000,0.0000000000,0.0000000000,0.0000000000,0.0000000000,0.0000000000,0.0000000000,0.0000000000,0.0000000000,0.0000000000,0.0000000000,-0.0000000000,-0.0000000000,-0.0000000000,-0.0000000000,-0.0000000000,-0.0000000000,0.0000000000,-1158.3240966797,50.0320434570,0.0000000000,0.0099930763,0.5000214577,0.0000307560,inf,0.0199997425,0.0300137997,0.0399386883,0.0199837685,0.0801079273,0.0299975872,0.0099637508,0.0099530220,0.0199747086,0.0000159740,0.0199654102,0.1400046349,262111
1777391570.7770588398,0.0310986862,0.0322270133,0.0988928229,3.1083811946,0.1107890073,0.0009303896,3.9059998989,3.9061584473,3.9045522213,nan,nan,nan,nan,-0.0152075235,-0.0018581462,0.0038696458,-0.1526841670,-0.0421724431,-1.9851684570,-0.0987172648,-0.4597532153,0.1957811117,-0.1739661527,-5.7245460726,1.5044078396,0.0000000000,0.0000000000,0.0000000000,0.0000000000,0.0000000000,0.0584626123,0.0000000000,0.0000000000,0.0000000000,0.0000000000,0.0000000000,0.0000000000,0.0000000000,0.0000000000,0.0000000000,0.0000000000,0.0000000000,-0.0000000000,-0.0000000000,-0.0000000000,-0.0000000000,-0.0000000000,-0.0000000000,0.0000000000,-1158.3240966797,50.0320434570,0.0000000000,0.0199465752,0.5099749565,0.0099842548,inf,0.0299532413,0.0399672985,0.0498921871,0.0299372673,0.0900614262,0.0399510860,0.0199172497,0.0199065208,0.0299282074,0.0099694729,0.0299189091,0.1499581337,262111
1777391570.7870626450,0.0310986862,0.0322270133,0.0988928229,3.1083811946,0.1107890073,0.0009303896,3.9059998989,3.9061584473,3.9045522213,nan,nan,nan,nan,-0.0152075235,-0.0018581462,0.0038696458,-0.1526841670,-0.0421724431,-1.9851684570,-0.0987172648,-0.4597532153,0.1957811117,-0.1739661527,-5.7245460726,1.5044078396,0.0000000000,0.0000000000,0.0000000000,0.0000000000,0.0000000000,0.0592960902,0.0000000000,0.0000000000,0.0000000000,0.0000000000,0.0000000000,0.0000000000,0.0000000000,0.0000000000,0.0000000000,0.0000000000,0.0000000000,-0.0000000000,-0.0000000000,-0.0000000000,-0.0000000000,-0.0000000000,-0.0000000000,0.0000000000,-1158.3240966797,50.0320434570,0.0000000000,0.0299503803,0.5199787617,0.0199880600,inf,0.0399570465,0.0499711037,0.0598959923,0.0399410725,0.0000250340,0.0499548912,0.0299210548,0.0299103260,0.0399320126,0.0199732780,0.0000123978,0.1599619389,262111
1777391570.7969930172,0.0310986862,0.0322270133,0.0988928229,3.1083811946,0.1107890073,0.0009303896,3.9059998989,3.9061584473,3.9045522213,nan,nan,nan,nan,-0.0152075235,-0.0018581462,0.0038696458,-0.1526841670,-0.0421724431,-1.9851684570,-0.0987172648,-0.4597532153,0.1957811117,-0.1739661527,-5.7245460726,1.5044078396,0.0000000000,0.0000000000,0.0000000000,0.0000000000,0.0000000000,0.0592960902,0.0000000000,0.0000000000,0.0000000000,0.0000000000,0.0000000000,0.0000000000,0.0000000000,0.0000000000,0.0000000000,0.0000000000,0.0000000000,-0.0000000000,-0.0000000000,-0.0000000000,-0.0000000000,-0.0000000000,-0.0000000000,0.0000000000,-1158.3240966797,50.0320434570,0.0000000000,0.0398807526,0.5299091339,0.0299184322,inf,0.0498874187,0.0599014759,0.0698263645,0.0498714447,0.0099554062,0.0598852634,0.0398514271,0.0398406982,0.0000095367,0.0299036503,0.0099427700,0.1698923111,262111
1777391570.8069944382,0.0310986862,0.0322270133,0.0988928229,3.1083811946,0.1107890073,0.0009303896,3.9059998989,3.9061584473,3.9045522213,nan,nan,nan,nan,-0.0152075235,-0.0018581462,0.0038696458,-0.1526841670,-0.0421724431,-1.9851684570,-0.0987172648,-0.4597532153,0.1957811117,-0.1739661527,-5.7245460726,1.5044078396,0.0000000000,0.0000000000,0.0000000000,0.0000000000,0.0000000000,0.0592960902,0.0000000000,0.0000000000,0.0000000000,0.0000000000,0.0000000000,0.0000000000,0.0000000000,0.0000000000,0.0000000000,0.0000000000,0.0000000000,-0.0000000000,-0.0000000000,-0.0000000000,-0.0000000000,-0.0000000000,-0.0000000000,0.0000000000,-1158.3240966797,50.0320434570,0.0000000000,0.0498821735,0.5399105549,0.0399198532,inf,0.0598888397,0.0699028969,0.0798277855,0.0598728657,0.0199568272,0.0698866844,0.0000116825,0.0498421192,0.0100109577,0.0399050713,0.0199441910,0.1798937321,262111
1777391570.8170242310,0.0310986862,0.0322270133,0.0988928229,3.1083811946,0.1107890073,0.0009303896,3.9059998989,3.9061584473,3.9045522213,nan,nan,nan,nan,-0.0152075235,-0.0018581462,0.0038696458,-0.1526841670,-0.0421724431,-1.9851684570,-0.0987172648,-0.4597532153,0.1957811117,-0.1739661527,-5.7245460726,1.5044078396,0.0000000000,0.0000000000,0.0000000000,0.0000000000,0.0000000000,0.0592960902,0.0000000000,0.0000000000,0.0000000000,0.0000000000,0.0000000000,0.0000000000,0.0000000000,0.0000000000,0.0000000000,0.0000000000,0.0000000000,-0.0000000000,-0.0000000000,-0.0000000000,-0.0000000000,-0.0000000000,-0.0000000000,0.0000000000,-1158.3240966797,50.0320434570,0.0000000000,0.0599119663,0.5499403477,0.0499496460,inf,0.0699186325,0.0799326897,0.0898575783,0.0699026585,0.0299866199,0.0799164772,0.0100414753,0.0598719120,0.0200407505,0.0499348640,0.0299739838,0.1899235249,262111
1777391570.8270373344,0.0310986862,0.0322270133,0.0988928229,3.1083811946,0.1107890073,0.0009303896,3.9059998989,3.9061584473,3.9045522213,nan,nan,nan,nan,-0.0152075235,-0.0018581462,0.0038696458,-0.1526841670,-0.0421724431,-1.9851684570,-0.0987172648,-0.4597532153,0.1957811117,-0.1739661527,-5.7245460726,1.5044078396,0.0000000000,0.0000000000,0.0000000000,0.0000000000,0.0000000000,0.0592960902,0.0000000000,0.0000000000,0.0000000000,0.0000000000,0.0000000000,0.0000000000,0.0000000000,0.0000000000,0.0000000000,0.0000000000,0.0000000000,-0.0000000000,-0.0000000000,-0.0000000000,-0.0000000000,-0.0000000000,-0.0000000000,0.0000000000,-1158.3240966797,50.0320434570,0.0000000000,0.0699250698,0.5599534512,0.0599627495,inf,0.0799317360,0.0899457932,0.0998706818,0.0799157619,0.0399997234,0.0899295807,0.0200545788,0.0698850155,0.0300538540,0.0599479675,0.0399870872,0.1999366283,262111
1777391570.8370976448,0.0302423649,0.0323387906,0.0988112763,3.1111678920,0.1052450841,0.0011690671,3.9059998989,3.9008798599,3.9044234753,nan,nan,nan,nan,-0.0152075235,-0.0018581462,0.0038696458,-0.1526841670,-0.0421724431,-1.9851684570,-0.0987172648,-0.4597532153,0.1957811117,-0.1739661527,-5.7245460726,1.5044078396,0.0000000000,0.0000000000,0.0000000000,0.0000000000,0.0000000000,0.0592960902,0.0000000000,0.0000000000,0.0000000000,0.0000000000,0.0000000000,0.0000000000,0.0000000000,0.0000000000,0.0000000000,0.0000000000,0.0000000000,-0.0000000000,-0.0000000000,-0.0000000000,-0.0000000000,-0.0000000000,-0.0000000000,0.0000000000,-1159.1726074219,43.6507759094,0.0000000000,0.0000691414,0.5700137615,0.0000398159,inf,0.0899920464,0.1000061035,0.1099309921,0.0899760723,0.0500600338,0.0000288486,0.0301148891,0.0000205040,0.0401141644,0.0000123978,0.0500473976,0.2099969387,262111
1777391570.8471653461,0.0302423649,0.0323387906,0.0988112763,3.1111678920,0.1052450841,0.0011690671,3.9059998989,3.9008798599,3.9044234753,nan,nan,nan,nan,-0.0152075235,-0.0018581462,0.0038696458,-0.1382615417,-0.0414589830,-1.9903409481,-0.0987172648,-0.4597532153,0.1957811117,-0.1739661527,-5.7245460726,1.5044078396,0.0000000000,0.0000000000,0.0000000000,0.0000000000,0.0000000000,0.0592960902,0.0000000000,0.0000000000,0.0000000000,0.0000000000,0.0000000000,0.0000000000,0.0000000000,0.0000000000,0.0000000000,0.0000000000,0.0000000000,-0.0000000000,-0.0000000000,-0.0000000000,-0.0000000000,-0.0000000000,-0.0000000000,0.0000000000,-1159.1726074219,43.6507759094,0.0000000000,0.0101368427,0.5800814629,0.0101075172,inf,0.1000597477,0.0000393391,0.1199986935,0.0000262260,0.0601277351,0.0100965500,0.0401825905,0.0100882053,0.0501818657,0.0100800991,0.0000166893,0.2200646400,262111
1777391570.8571751118,0.0339992084,0.0320006683,0.0989998579,3.1111755691,0.0969327895,0.0012956401,3.9059998989,3.9008798599,3.9044234753,nan,nan,nan,nan,-0.0015895541,-0.0014023241,0.0005545543,-0.1382615417,-0.0414589830,-1.9903409481,-0.0987172648,-0.4597532153,0.1957811117,-0.1739661527,-5.7245460726,1.5044078396,0.0000000000,0.0000000000,0.0000000000,0.0000000000,0.0000000000,0.0592960902,0.0000000000,0.0000000000,0.0000000000,0.0000000000,0.0000000000,0.0000000000,0.0000000000,0.0000000000,0.0000000000,0.0000000000,0.0000000000,-0.0000000000,-0.0000000000,-0.0000000000,-0.0000000000,-0.0000000000,-0.0000000000,0.0000000000,-1159.1726074219,43.6507759094,0.0000000000,0.0001051426,0.5900912285,0.0201172829,inf,0.0000679493,0.0100491047,0.1300084591,0.0100359917,0.0701375008,0.0201063156,0.0000498295,0.0000333786,0.0000176430,0.0200898647,0.0100264549,0.2300744057,262111
1777391570.8671102524,0.0339992084,0.0320006683,0.0989998579,3.1111755691,0.0969327895,0.0012956401,3.9059998989,3.9008798599,3.9043791294,nan,nan,nan,nan,-0.0015895541,-0.0014023241,0.0005545543,-0.1382615417,-0.0414589830,-1.9903409481,-0.0987172648,-0.4597532153,0.1957811117,-0.1739661527,-5.7245460726,1.5044078396,0.0000000000,0.0000000000,0.0000000000,0.0000000000,0.0000000000,0.0592960902,0.0000000000,0.0000000000,0.0000000000,0.0000000000,0.0000000000,0.0000000000,0.0000000000,0.0000000000,0.0000000000,0.0000000000,0.0000000000,-0.0000000000,-0.0000000000,-0.0000000000,-0.0000000000,-0.0000000000,-0.0000000000,0.0000000000,-1159.1726074219,43.6507759094,0.0000000000,0.0100402832,0.6000263691,0.0000422001,inf,0.0100030899,0.0199842453,0.1399435997,0.0199711323,0.0800726414,0.0300414562,0.0099849701,0.0099685192,0.0099527836,0.0000171661,0.0199615955,0.2400095463,262111
1777391570.8771030903,0.0339992084,0.0320006683,0.0989998579,3.1111755691,0.0969327895,0.0012956401,3.9059998989,3.9008798599,3.9043791294,nan,nan,nan,nan,-0.0015895541,-0.0014023241,0.0005545543,-0.1382615417,-0.0414589830,-1.9903409481,-0.0987172648,-0.4597532153,0.1957811117,-0.1739661527,-5.7245460726,1.5044078396,0.0000000000,0.0000000000,0.0000000000,0.0000000000,0.0000000000,0.0592960902,0.0000000000,0.0000000000,0.0000000000,0.0000000000,0.0000000000,0.0000000000,0.0000000000,0.0000000000,0.0000000000,0.0000000000,0.0000000000,-0.0000000000,-0.0000000000,-0.0000000000,-0.0000000000,-0.0000000000,-0.0000000000,0.0000000000,-1159.1726074219,43.6507759094,0.0000000000,0.0200331211,0.6100192070,0.0100350380,inf,0.0199959278,0.0299770832,0.1499364376,0.0299639702,0.0900654793,0.0400342941,0.0199778080,0.0199613571,0.0199456215,0.0100100040,0.0299544334,0.2500023842,262111
1777391570.8870968819,0.0339992084,0.0320006683,0.0989998579,3.1111755691,0.0969327895,0.0012956401,3.9059998989,3.9008798599,3.9043791294,nan,nan,nan,nan,-0.0015895541,-0.0014023241,0.0005545543,-0.1382615417,-0.0414589830,-1.9903409481,-0.0987172648,-0.4597532153,0.1957811117,-0.1739661527,-5.7245460726,1.5044078396,0.0000000000,0.0000000000,0.0000000000,0.0000000000,0.0000000000,0.0618280172,0.0000000000,0.0000000000,0.0000000000,0.0000000000,0.0000000000,0.0000000000,0.0000000000,0.0000000000,0.0000000000,0.0000000000,0.0000000000,-0.0000000000,-0.0000000000,-0.0000000000,-0.0000000000,-0.0000000000,-0.0000000000,0.0000000000,-1159.1726074219,43.6507759094,0.0000000000,0.0300269127,0.6200129986,0.0200288296,inf,0.0299897194,0.0399708748,0.1599302292,0.0399577618,0.0000190735,0.0500280857,0.0299715996,0.0299551487,0.0299394131,0.0200037956,0.0399482250,0.2599961758,262111
1777391570.8970572948,0.0339992084,0.0320006683,0.0989998579,3.1111755691,0.0969327895,0.0012956401,3.9059998989,3.9008798599,3.9043791294,nan,nan,nan,nan,-0.0015895541,-0.0014023241,0.0005545543,-0.1382615417,-0.0414589830,-1.9903409481,-0.0987172648,-0.4597532153,0.1957811117,-0.1739661527,-5.7245460726,1.5044078396,0.0000000000,0.0000000000,0.0000000000,0.0000000000,0.0000000000,0.0618280172,0.0000000000,0.0000000000,0.0000000000,0.0000000000,0.0000000000,0.0000000000,0.0000000000,0.0000000000,0.0000000000,0.0000000000,0.0000000000,-0.0000000000,-0.0000000000,-0.0000000000,-0.0000000000,-0.0000000000,-0.0000000000,0.0000000000,-1159.1726074219,43.6507759094,0.0000000000,0.0399873257,0.6299734116,0.0299892426,inf,0.0399501324,0.0499312878,0.1698906422,0.0499181747,0.0099794865,0.0599884987,0.0399320126,0.0399155617,0.0000424385,0.0299642086,0.0000138283,0.2699565887,262111
1777391570.9070904255,0.0339992084,0.0320006683,0.0989998579,3.1111755691,0.0969327895,0.0012956401,3.9059998989,3.9008798599,3.9043791294,nan,nan,nan,nan,-0.0015895541,-0.0014023241,0.0005545543,-0.1382615417,-0.0414589830,-1.9903409481,-0.0987172648,-0.4597532153,0.1957811117,-0.1739661527,-5.7245460726,1.5044078396,0.0000000000,0.0000000000,0.0000000000,0.0000000000,0.0000000000,0.0618280172,0.0000000000,0.0000000000,0.0000000000,0.0000000000,0.0000000000,0.0000000000,0.0000000000,0.0000000000,0.0000000000,0.0000000000,0.0000000000,-0.0000000000,-0.0000000000,-0.0000000000,-0.0000000000,-0.0000000000,-0.0000000000,0.0000000000,-1159.1726074219,43.6507759094,0.0000000000,0.0500204563,0.6400065422,0.0400223732,inf,0.0499832630,0.0599644184,0.1799237728,0.0599513054,0.0200126171,0.0700216293,0.0000212193,0.0499486923,0.0100755692,0.0399973392,0.0100469589,0.2799897194,262111
1777391570.9171881676,0.0339705423,0.0320189521,0.0989973098,3.1111798034,0.0913922070,0.0013799299,3.9059998989,3.9061584473,3.9042530060,nan,nan,nan,nan,-0.0015895541,-0.0014023241,0.0005545543,-0.1382615417,-0.0414589830,-1.9903409481,-0.0987172648,-0.4597532153,0.1957811117,-0.1739661527,-5.7245460726,1.5044078396,0.0000000000,0.0000000000,0.0000000000,0.0000000000,0.0000000000,0.0618280172,0.0000000000,0.0000000000,0.0000000000,0.0000000000,0.0000000000,0.0000000000,0.0000000000,0.0000000000,0.0000000000,0.0000000000,0.0000000000,-0.0000000000,-0.0000000000,-0.0000000000,-0.0000000000,-0.0000000000,-0.0000000000,0.0000000000,-1159.1726074219,43.6507759094,0.0000000000,0.0000851154,0.6501042843,0.0000510216,inf,0.0600810051,0.0700621605,0.1900215149,0.0700490475,0.0301103592,0.0801193714,0.0101189613,0.0000369549,0.0201733112,0.0000269413,0.0201447010,0.2900874615,262111
1777391570.9270682335,0.0339705423,0.0320189521,0.0989973098,3.1111798034,0.0913922070,0.0013799299,3.9059998989,3.9061584473,3.9042530060,nan,nan,nan,nan,-0.0015895541,-0.0014023241,0.0005545543,-0.1382615417,-0.0414589830,-1.9903409481,-0.0345800333,0.0570578165,-0.0289574377,0.3208884390,2.5856851201,-1.1244015460,0.0000000000,0.0000000000,0.0000000000,0.0000000000,0.0000000000,0.0618280172,0.0000000000,0.0000000000,0.0000000000,0.0000000000,0.0000000000,0.0000000000,0.0000000000,0.0000000000,0.0000000000,0.0000000000,0.0000000000,-0.0000000000,-0.0000000000,-0.0000000000,-0.0000000000,-0.0000000000,-0.0000000000,0.0000000000,-1159.1726074219,43.6507759094,0.0000000000,0.0099651814,0.6599843502,0.0099310875,inf,0.0699610710,0.0799422264,0.0000276566,0.0799291134,0.0399904251,0.0899994373,0.0199990273,0.0099170208,0.0300533772,0.0099070072,0.0300247669,0.2999675274,262111
1777391570.9371128082,0.0339705423,0.0320189521,0.0989973098,3.1111798034,0.0913922070,0.0013799299,3.9059998989,3.9061584473,3.9042530060,nan,nan,nan,nan,-0.0015895541,-0.0014023241,0.0005545543,-0.1248639077,-0.0388790593,-1.9906862974,-0.0345800333,0.0570578165,-0.0289574377,0.3208884390,2.5856851201,-1.1244015460,0.0000000000,0.0000000000,0.0000000000,0.0000000000,0.0000000000,0.0618280172,0.0000000000,0.0000000000,0.0000000000,0.0000000000,0.0000000000,0.0000000000,0.0000000000,0.0000000000,0.0000000000,0.0000000000,0.0000000000,-0.0000000000,-0.0000000000,-0.0000000000,-0.0000000000,-0.0000000000,-0.0000000000,0.0000000000,-1159.7968750000,38.4714088440,0.0000000000,0.0200097561,0.6700289249,0.0199756622,inf,0.0800056458,0.0000400543,0.0100722313,0.0000259876,0.0500349998,0.0000166893,0.0300436020,0.0199615955,0.0400979519,0.0199515820,0.0400693417,0.3100121021,262111
1777391570.9470872879,0.0339705423,0.0320189521,0.0989973098,3.1111798034,0.0913922070,0.0013799299,3.9059998989,3.9061584473,3.9042530060,nan,nan,nan,nan,-0.0042853458,-0.0019902873,0.0007020589,-0.1248639077,-0.0388790593,-1.9906862974,-0.0345800333,0.0570578165,-0.0289574377,0.3208884390,2.5856851201,-1.1244015460,0.0000000000,0.0000000000,0.0000000000,0.0000000000,0.0000000000,0.0618280172,0.0000000000,0.0000000000,0.0000000000,0.0000000000,0.0000000000,0.0000000000,0.0000000000,0.0000000000,0.0000000000,0.0000000000,0.0000000000,-0.0000000000,-0.0000000000,-0.0000000000,-0.0000000000,-0.0000000000,-0.0000000000,0.0000000000,-1159.7968750000,38.4714088440,0.0000000000,0.0299842358,0.6800034046,0.0299501419,inf,0.0000298023,0.0100145340,0.0200467110,0.0100004673,0.0600094795,0.0099911690,0.0400180817,0.0299360752,0.0000193119,0.0299260616,0.0000126362,0.3199865818,262111
1777391570.9571273327,0.0338970311,0.0320479162,0.0989967212,3.1139588386,0.0858502066,0.0015833688,3.9059998989,3.9061584473,3.9042530060,nan,nan,nan,nan,-0.0042853458,-0.0019902873,0.0007020589,-0.1248639077,-0.0388790593,-1.9906862974,-0.0345800333,0.0570578165,-0.0289574377,0.3208884390,2.5856851201,-1.1244015460,0.0000000000,0.0000000000,0.0000000000,0.0000000000,0.0000000000,0.0618280172,0.0000000000,0.0000000000,0.0000000000,0.0000000000,0.0000000000,0.0000000000,0.0000000000,0.0000000000,0.0000000000,0.0000000000,0.0000000000,-0.0000000000,-0.0000000000,-0.0000000000,-0.0000000000,-0.0000000000,-0.0000000000,0.0000000000,-1159.7968750000,38.4714088440,0.0000000000,0.0000517368,0.6900434494,0.0399901867,inf,0.0100698471,0.0200545788,0.0300867558,0.0200405121,0.0700495243,0.0200312138,0.0000250340,0.0000145435,0.0100593567,0.0399661064,0.0100526810,0.3300266266,262111
1777391570.9671003819,0.0338970311,0.0320479162,0.0989967212,3.1139588386,0.0858502066,0.0015833688,3.9059998989,3.9061584473,3.9042460918,nan,nan,nan,nan,-0.0042853458,-0.0019902873,0.0007020589,-0.1248639077,-0.0388790593,-1.9906862974,-0.0345800333,0.0570578165,-0.0289574377,0.3208884390,2.5856851201,-1.1244015460,0.0000000000,0.0000000000,0.0000000000,0.0000000000,0.0000000000,0.0618280172,0.0000000000,0.0000000000,0.0000000000,0.0000000000,0.0000000000,0.0000000000,0.0000000000,0.0000000000,0.0000000000,0.0000000000,0.0000000000,-0.0000000000,-0.0000000000,-0.0000000000,-0.0000000000,-0.0000000000,-0.0000000000,0.0000000000,-1159.7968750000,38.4714088440,0.0000000000,0.0100247860,0.7000164986,0.0000190735,inf,0.0200428963,0.0300276279,0.0400598049,0.0300135612,0.0800225735,0.0300042629,0.0099980831,0.0099875927,0.0200324059,0.0499391556,0.0200257301,0.3399996758,262111
1777391570.9770805836,0.0338970311,0.0320479162,0.0989967212,3.1139588386,0.0858502066,0.0015833688,3.9059998989,3.9061584473,3.9042460918,nan,nan,nan,nan,-0.0042853458,-0.0019902873,0.0007020589,-0.1248639077,-0.0388790593,-1.9906862974,-0.0345800333,0.0570578165,-0.0289574377,0.3208884390,2.5856851201,-1.1244015460,0.0000000000,0.0000000000,0.0000000000,0.0000000000,0.0000000000,0.0618280172,0.0000000000,0.0000000000,0.0000000000,0.0000000000,0.0000000000,0.0000000000,0.0000000000,0.0000000000,0.0000000000,0.0000000000,0.0000000000,-0.0000000000,-0.0000000000,-0.0000000000,-0.0000000000,-0.0000000000,-0.0000000000,0.0000000000,-1159.7968750000,38.4714088440,0.0000000000,0.0200049877,0.7099967003,0.0099992752,inf,0.0300230980,0.0400078297,0.0500400066,0.0399937630,0.0900027752,0.0399844646,0.0199782848,0.0199677944,0.0300126076,0.0599193573,0.0300059319,0.3499798775,262111
1777391570.9870254993,0.0338970311,0.0320479162,0.0989967212,3.1139588386,0.0858502066,0.0015833688,3.9059998989,3.9061584473,3.9042460918,nan,nan,nan,nan,-0.0042853458,-0.0019902873,0.0007020589,-0.1248639077,-0.0388790593,-1.9906862974,-0.0345800333,0.0570578165,-0.0289574377,0.3208884390,2.5856851201,-1.1244015460,0.0000000000,0.0000000000,0.0000000000,0.0000000000,0.0000000000,0.0613463819,0.0000000000,0.0000000000,0.0000000000,0.0000000000,0.0000000000,0.0000000000,0.0000000000,0.0000000000,0.0000000000,0.0000000000,0.0000000000,-0.0000000000,-0.0000000000,-0.0000000000,-0.0000000000,-0.0000000000,-0.0000000000,0.0000000000,-1159.7968750000,38.4714088440,0.0000000000,0.0299499035,0.7199416161,0.0199441910,inf,0.0399680138,0.0499527454,0.0599849224,0.0499386787,0.0000281334,0.0499293804,0.0299232006,0.0299127102,0.0399575233,0.0698642731,0.0000181198,0.3599247932,262111
1777391570.9971008301,0.0338970311,0.0320479162,0.0989967212,3.1139588386,0.0858502066,0.0015833688,3.9059998989,3.9061584473,3.9042460918,nan,nan,nan,nan,-0.0042853458,-0.0019902873,0.0007020589,-0.1248639077,-0.0388790593,-1.9906862974,-0.0345800333,0.0570578165,-0.0289574377,0.3208884390,2.5856851201,-1.1244015460,0.0000000000,0.0000000000,0.0000000000,0.0000000000,0.0000000000,0.0613463819,0.0000000000,0.0000000000,0.0000000000,0.0000000000,0.0000000000,0.0000000000,0.0000000000,0.0000000000,0.0000000000,0.0000000000,0.0000000000,-0.0000000000,-0.0000000000,-0.0000000000,-0.0000000000,-0.0000000000,-0.0000000000,0.0000000000,-1159.7968750000,38.4714088440,0.0000000000,0.0400252342,0.7300169468,0.0300195217,inf,0.0500433445,0.0600280762,0.0700602531,0.0600140095,0.0101034641,0.0600047112,0.0399985313,0.0399880409,0.0000169277,0.0799396038,0.0100934505,0.3700001240,262111
1777391571.0070998669,0.0339983515,0.0320006199,0.0989999250,3.1139607039,0.0803108746,0.0016597985,3.9059998989,3.9061584473,3.9042460918,nan,nan,nan,nan,-0.0042853458,-0.0019902873,0.0007020589,-0.1248639077,-0.0388790593,-1.9906862974,-0.0345800333,0.0570578165,-0.0289574377,0.3208884390,2.5856851201,-1.1244015460,0.0000000000,0.0000000000,0.0000000000,0.0000000000,0.0000000000,0.0613463819,0.0000000000,0.0000000000,0.0000000000,0.0000000000,0.0000000000,0.0000000000,0.0000000000,0.0000000000,0.0000000000,0.0000000000,0.0000000000,-0.0000000000,-0.0000000000,-0.0000000000,-0.0000000000,-0.0000000000,-0.0000000000,0.0000000000,-1159.7968750000,38.4714088440,0.0000000000,0.0000431538,0.7400159836,0.0400185585,inf,0.0600423813,0.0700271130,0.0800592899,0.0700130463,0.0201025009,0.0700037479,0.0499975681,0.0000164509,0.0100159645,0.0899386406,0.0200924873,0.3799991608,262111
1777391571.0170898438,0.0339983515,0.0320006199,0.0989999250,3.1139607039,0.0803108746,0.0016597985,3.9059998989,3.9061584473,3.9043076038,nan,nan,nan,nan,-0.0042853458,-0.0019902873,0.0007020589,-0.1248639077,-0.0388790593,-1.9906862974,-0.0345800333,0.0570578165,-0.0289574377,0.3208884390,2.5856851201,-1.1244015460,0.0000000000,0.0000000000,0.0000000000,0.0000000000,0.0000000000,0.0613463819,0.0000000000,0.0000000000,0.0000000000,0.0000000000,0.0000000000,0.0000000000,0.0000000000,0.0000000000,0.0000000000,0.0000000000,0.0000000000,-0.0000000000,-0.0000000000,-0.0000000000,-0.0000000000,-0.0000000000,-0.0000000000,0.0000000000,-1159.7968750000,38.4714088440,0.0000000000,0.0100331306,0.7500059605,0.0000340939,inf,0.0700323582,0.0800170898,0.0900492668,0.0800030231,0.0300924778,0.0799937248,0.0599875450,0.0100064278,0.0200059414,0.0000181198,0.0300824642,0.3899891376,262111
1777391571.0271410942,0.0339983515,0.0320006199,0.0989999250,3.1139607039,0.0803108746,0.0016597985,3.9059998989,3.9061584473,3.9043076038,nan,nan,nan,nan,-0.0042853458,-0.0019902873,0.0007020589,-0.1248639077,-0.0388790593,-1.9906862974,0.0059051677,-0.0354845822,0.0596693419,0.4046035156,-0.9248559719,0.8857238145,0.0000000000,0.0000000000,0.0000000000,0.0000000000,0.0000000000,0.0613463819,0.0000000000,0.0000000000,0.0000000000,0.0000000000,0.0000000000,0.0000000000,0.0000000000,0.0000000000,0.0000000000,0.0000000000,0.0000000000,-0.0000000000,-0.0000000000,-0.0000000000,-0.0000000000,-0.0000000000,-0.0000000000,0.0000000000,-1159.7968750000,38.4714088440,0.0000000000,0.0200843811,0.7600572109,0.0100853443,inf,0.0800836086,0.0900683403,0.0000391006,0.0000262260,0.0401437283,0.0900449753,0.0700387955,0.0200576782,0.0300571918,0.0100693703,0.0401337147,0.0000171661,262111
1777391571.0371112823,0.0339983515,0.0320006199,0.0989999250,3.1139607039,0.0803108746,0.0016597985,3.9059998989,3.9061584473,3.9043076038,nan,nan,nan,nan,-0.0042853458,-0.0019902873,0.0007020589,-0.1248639077,-0.0388790593,-1.9906862974,0.0059051677,-0.0354845822,0.0596693419,0.4046035156,-0.9248559719,0.8857238145,0.0000000000,0.0000000000,0.0000000000,0.0000000000,0.0000000000,0.0613463819,0.0000000000,0.0000000000,0.0000000000,0.0000000000,0.0000000000,0.0000000000,0.0000000000,0.0000000000,0.0000000000,0.0000000000,0.0000000000,-0.0000000000,-0.0000000000,-0.0000000000,-0.0000000000,-0.0000000000,-0.0000000000,0.0000000000,-1160.2835693359,33.5259132385,0.0000000000,0.0300545692,0.7700273991,0.0200555325,inf,0.0900537968,0.1000385284,0.0100092888,0.0099964142,0.0501139164,0.0000200272,0.0800089836,0.0300278664,0.0400273800,0.0200395584,0.0501039028,0.0099873543,262111
1777391571.0471427441,0.0339983515,0.0320006199,0.0989999250,3.1139607039,0.0803108746,0.0016597985,3.9059998989,3.9061584473,3.9043076038,nan,nan,nan,nan,-0.0042853458,-0.0019902873,0.0007020589,-0.1137814969,-0.0381873660,-1.9930781126,0.0059051677,-0.0354845822,0.0596693419,0.4046035156,-0.9248559719,0.8857238145,0.0000000000,0.0000000000,0.0000000000,0.0000000000,0.0000000000,0.0613463819,0.0000000000,0.0000000000,0.0000000000,0.0000000000,0.0000000000,0.0000000000,0.0000000000,0.0000000000,0.0000000000,0.0000000000,0.0000000000,-0.0000000000,-0.0000000000,-0.0000000000,-0.0000000000,-0.0000000000,-0.0000000000,0.0000000000,-1160.2835693359,33.5259132385,0.0000000000,0.0400860310,0.7800588608,0.0300869942,inf,0.1000852585,0.0000264645,0.0200407505,0.0200278759,0.0601453781,0.0100514889,0.0900404453,0.0400593281,0.0500588417,0.0300710201,0.0000152588,0.0200188160,262111
1777391571.0571947098,0.0339983515,0.0320006199,0.0989999250,3.1139607039,0.0803108746,0.0016597985,3.9059998989,3.9061584473,3.9043076038,nan,nan,nan,nan,-0.0059955590,-0.0021190397,0.0006688298,-0.1137814969,-0.0381873660,-1.9930781126,0.0059051677,-0.0354845822,0.0596693419,0.4046035156,-0.9248559719,0.8857238145,0.0000000000,0.0000000000,0.0000000000,0.0000000000,0.0000000000,0.0613463819,0.0000000000,0.0000000000,0.0000000000,0.0000000000,0.0000000000,0.0000000000,0.0000000000,0.0000000000,0.0000000000,0.0000000000,0.0000000000,-0.0000000000,-0.0000000000,-0.0000000000,-0.0000000000,-0.0000000000,-0.0000000000,0.0000000000,-1160.2835693359,33.5259132385,0.0000000000,0.0501379967,0.7901108265,0.0401389599,inf,0.0000462532,0.0100784302,0.0300927162,0.0300798416,0.0701973438,0.0201034546,0.0000333786,0.0000247955,0.0000169277,0.0401229858,0.0100672245,0.0300707817,262111
1777391571.0671582222,0.0339941606,0.0320021249,0.0990000293,3.1139619331,0.0747721551,0.0017361898,3.9059998989,3.9008798599,3.9042937756,nan,nan,nan,nan,-0.0059955590,-0.0021190397,0.0006688298,-0.1137814969,-0.0381873660,-1.9930781126,0.0059051677,-0.0354845822,0.0596693419,0.4046035156,-0.9248559719,0.8857238145,0.0000000000,0.0000000000,0.0000000000,0.0000000000,0.0000000000,0.0613463819,0.0000000000,0.0000000000,0.0000000000,0.0000000000,0.0000000000,0.0000000000,0.0000000000,0.0000000000,0.0000000000,0.0000000000,0.0000000000,-0.0000000000,-0.0000000000,-0.0000000000,-0.0000000000,-0.0000000000,-0.0000000000,0.0000000000,-1160.2835693359,33.5259132385,0.0000000000,0.0000448227,0.8000743389,0.0000195503,inf,0.0100097656,0.0200419426,0.0400562286,0.0400433540,0.0801608562,0.0300669670,0.0099968910,0.0099883080,0.0099804401,0.0500864983,0.0200307369,0.0400342941,262111
